Time (s) intensità_laser_sole.1	Light Intensity (% of scale max) intensità_laser_sole.1
0.0	24.14803
0.04	24.17268
0.08	24.16158
0.12	24.16615
0.16	24.17015
0.2	24.16374
0.24	24.16708
0.28	24.1606
0.32	24.16922
0.36	24.16608
0.4	24.16849
0.44	24.16469
0.48	24.16408
0.52	24.16891
0.56	24.1624
0.6	24.15437
0.64	24.16153
0.68	24.16203
0.72	24.15996
0.76	24.1564
0.8	24.16255
0.84	24.15111
0.88	24.1526
0.92	24.16013
0.96	24.15585
1.0	24.15933
1.04	24.16122
1.08	24.16252
1.12	24.17213
1.16	24.15863
1.2	24.1693
1.24	24.17802
1.28	24.1671
1.32	24.15401
1.36	24.15796
1.4	24.16333
1.44	24.15335
1.48	24.16608
1.52	24.16621
1.56	24.15312
1.6	24.15578
1.64	24.16443
1.68	24.15697
1.72	24.15291
1.76	24.16629
1.8	24.15453
1.84	24.15822
1.88	24.16307
1.92	24.15825
1.96	24.15639
2.0	24.16457
2.04	24.15948
2.08	24.15811
2.12	24.16266
2.16	24.16086
2.2	24.153
2.24	24.15752
2.28	24.16289
2.32	24.16133
2.36	24.15868
2.4	24.17224
2.44	24.15453
2.48	24.14906
2.52	24.21953
2.56	24.23666
2.6	24.18198
2.64	24.1899
2.68	24.17177
2.72	24.17101
2.76	24.15543
2.8	24.15898
2.84	24.17682
2.88	24.13002
2.92	24.15778
2.96	24.15434
3.0	24.16579
3.04	24.15022
3.08	24.15207
3.12	24.16089
3.16	24.14108
3.2	24.15825
3.24	24.1579
3.28	24.14091
3.32	24.15645
3.36	24.15901
3.4	24.13918
3.44	24.1409
3.48	24.15822
3.52	24.14748
3.56	24.15208
3.6	24.14754
3.64	24.14819
3.68	24.1492
3.72	24.14772
3.76	24.14943
3.8	24.14763
3.84	24.14543
3.88	24.15446
3.92	24.14735
3.96	24.14558
4.0	24.14862
4.04	24.14671
4.08	24.14372
4.12	24.14616
4.16	24.14679
4.2	24.14565
4.24	24.14848
4.28	24.14458
4.32	24.14653
4.36	24.1416
4.4	24.14835
4.44	24.14397
4.48	24.14397
4.52	24.14647
4.56	24.14421
4.6	24.14359
4.64	24.15071
4.68	24.14197
4.72	24.14108
4.76	24.14841
4.8	24.14482
4.84	24.14189
4.88	24.14688
4.92	24.14374
4.96	24.14401
5.0	24.14925
5.04	24.15459
5.08	24.15433
5.12	24.14842
5.16	24.15614
5.2	24.15332
5.24	24.14673
5.28	24.14359
5.32	24.14812
5.36	24.12624
5.4	24.12511
5.44	24.03845
5.48	23.98328
5.52	23.94894
5.56	23.98007
5.6	23.97672
5.64	23.94821
5.68	23.95779
5.72	23.98271
5.76	23.96474
5.8	23.96521
5.84	23.96745
5.88	23.95326
5.92	23.95831
5.96	23.96748
6.0	23.95711
6.04	23.95325
6.08	23.97501
6.12	23.95757
6.16	23.95808
6.2	23.96353
6.24	23.9677
6.28	23.95486
6.32	23.96608
6.36	23.96696
6.4	23.95592
6.44	23.9697
6.48	23.96481
6.52	23.9498
6.56	23.96223
6.6	23.96552
6.64	23.95479
6.68	23.96777
6.72	23.96834
6.76	23.95815
6.8	23.96016
6.84	23.96214
6.88	23.95413
6.92	23.94965
6.96	23.95816
7.0	23.95613
7.04	23.95502
7.08	23.95782
7.12	23.96294
7.16	23.9422
7.2	23.95581
7.24	23.9584
7.28	23.95016
7.32	23.95596
7.36	23.95628
7.4	23.95361
7.44	23.95177
7.48	23.95816
7.52	23.95435
7.56	23.94983
7.6	23.95494
7.64	23.94884
7.68	23.95261
7.72	23.95288
7.76	23.95009
7.8	23.94334
7.84	23.95601
7.88	23.95245
7.92	23.94582
7.96	23.95541
8.0	23.95129
8.04	23.94473
8.08	23.95337
8.12	23.94922
8.16	23.95012
8.2	23.95311
8.24	23.95
8.28	23.94885
8.32	23.94629
8.36	23.95087
8.4	23.94928
8.44	23.94142
8.48	23.94928
8.52	23.94023
8.56	23.948
8.6	23.94443
8.64	23.9415
8.68	23.94707
8.72	23.94769
8.76	23.94255
8.8	23.93742
8.84	23.9406
8.88	23.93958
8.92	23.94359
8.96	23.94186
9.0	23.93903
9.04	23.94446
9.08	23.94427
9.12	23.93781
9.16	23.93427
9.2	23.94368
9.24	23.94449
9.28	23.94267
9.32	23.95451
9.36	23.94872
9.4	23.94908
9.44	23.94733
9.48	23.94281
9.52	23.93718
9.56	23.94087
9.6	23.93324
9.64	23.93341
9.68	23.938
9.72	23.94608
9.76	23.94273
9.8	23.94102
9.84	23.93513
9.88	23.94273
9.92	23.92166
9.96	23.94278
10.0	23.93735
10.04	23.9391
10.08	23.94864
10.12	23.93466
10.16	23.93077
10.2	23.93552
10.24	23.92773
10.28	23.92882
10.32	23.93759
10.36	23.94313
10.4	23.93478
10.44	23.93657
10.48	23.93776
10.52	23.93454
10.56	23.93285
10.6	23.93396
10.64	23.92719
10.68	23.93164
10.72	23.92519
10.76	23.9203
10.8	23.92216
10.84	23.93246
10.88	23.92662
10.92	23.93478
10.96	23.93518
11.0	23.93585
11.04	23.94119
11.08	23.92615
11.12	23.92749
11.16	23.9306
11.2	23.92737
11.24	23.93176
11.28	23.92804
11.32	23.92726
11.36	23.92738
11.4	23.92807
11.44	23.93022
11.48	23.92749
11.52	23.93129
11.56	23.9343
11.6	23.93916
11.64	23.93408
11.68	23.93576
11.72	23.9357
11.76	23.93546
11.8	23.94269
11.84	23.93378
11.88	23.93056
11.92	23.93549
11.96	23.93439
12.0	23.93834
12.04	23.9373
12.08	23.94148
12.12	23.94411
12.16	23.93599
12.2	23.93799
12.24	23.93492
12.28	23.93776
12.32	23.94659
12.36	23.94038
12.4	23.93597
12.44	23.93741
12.48	23.9276
12.52	23.92287
12.56	23.9285
12.6	23.91884
12.64	23.93913
12.68	23.93773
12.72	23.93658
12.76	23.93974
12.8	23.94084
12.84	23.93561
12.88	23.94077
12.92	23.94035
12.96	23.9369
13.0	23.93904
13.04	23.93822
13.08	23.92943
13.12	23.93427
13.16	23.93198
13.2	23.93433
13.24	23.93407
13.28	23.93208
13.32	23.9344
13.36	23.93459
13.4	23.93138
13.44	23.93372
13.48	23.93242
13.52	23.93742
13.56	23.93698
13.6	23.93628
13.64	23.94704
13.68	23.944
13.72	23.93889
13.76	23.94135
13.8	23.94141
13.84	23.94026
13.88	23.94237
13.92	23.93648
13.96	23.93826
14.0	23.93851
14.04	23.93814
14.08	23.94316
14.12	23.93889
14.16	23.94078
14.2	23.94122
14.24	23.93979
14.28	23.92723
14.32	23.93326
14.36	23.92737
14.4	23.93257
14.44	23.94681
14.48	23.94073
14.52	23.93884
14.56	23.93849
14.6	23.93977
14.64	23.94135
14.68	23.92799
14.72	23.93086
14.76	23.92726
14.8	23.93268
14.84	23.93834
14.88	23.9375
14.92	23.93605
14.96	23.93068
15.0	23.94281
15.04	23.93419
15.08	23.92844
15.12	23.9205
15.16	23.90784
15.2	23.91539
15.24	23.91301
15.28	23.91391
15.32	23.91649
15.36	23.92155
15.4	23.92737
15.44	23.92543
15.48	23.92348
15.52	23.9223
15.56	23.93224
15.6	23.9379
15.64	23.94618
15.68	23.94144
15.72	23.94017
15.76	23.93785
15.8	23.92377
15.84	23.91731
15.88	23.9285
15.92	23.93863
15.96	23.939
16.0	23.93723
16.04	23.93666
16.08	23.93542
16.12	23.93082
16.16	23.92841
16.2	23.92972
16.24	23.92729
16.28	23.93048
16.32	23.9288
16.36	23.92699
16.4	23.9294
16.44	23.91998
16.48	23.92125
16.52	23.92529
16.56	23.92986
16.6	23.93686
16.64	23.93242
16.68	23.93625
16.72	23.9399
16.76	23.93285
16.8	23.93686
16.84	23.93729
16.88	23.9333
16.92	23.93576
16.96	23.93341
17.0	23.93297
17.04	23.93419
17.08	23.92694
17.12	23.92415
17.16	23.92174
17.2	23.91525
17.24	23.91963
17.28	23.9149
17.32	23.9187
17.36	23.91571
17.4	23.9149
17.44	23.91603
17.48	23.91684
17.52	23.91838
17.56	23.91675
17.6	23.9127
17.64	23.91516
17.68	23.90508
17.72	23.90269
17.76	23.90656
17.8	23.89937
17.84	23.90794
17.88	23.91098
17.92	23.90891
17.96	23.91707
18.0	23.91682
18.04	23.91798
18.08	23.92291
18.12	23.91907
18.16	23.91859
18.2	23.92303
18.24	23.91983
18.28	23.916
18.32	23.91635
18.36	23.91748
18.4	23.91519
18.44	23.91209
18.48	23.91496
18.52	23.91795
18.56	23.91357
18.6	23.91811
18.64	23.91788
18.68	23.91031
18.72	23.91968
18.76	23.91646
18.8	23.91519
18.84	23.91811
18.88	23.90976
18.92	23.9167
18.96	23.91302
19.0	23.90584
19.04	23.91312
19.08	23.90729
19.12	23.90245
19.16	23.90065
19.2	23.90253
19.24	23.90111
19.28	23.8972
19.32	23.90179
19.36	23.90019
19.4	23.89574
19.44	23.90346
19.48	23.90073
19.52	23.89857
19.56	23.90276
19.6	23.89709
19.64	23.90421
19.68	23.90813
19.72	23.90045
19.76	23.90465
19.8	23.90533
19.84	23.90088
19.88	23.90335
19.92	23.90996
19.96	23.90456
20.0	23.91306
20.04	23.90633
20.08	23.90547
20.12	23.90906
20.16	23.90662
20.2	23.9024
20.24	23.90225
20.28	23.90134
20.32	23.90067
20.36	23.89964
20.4	23.9021
20.44	23.90114
20.48	23.89732
20.52	23.90282
20.56	23.9043
20.6	23.89914
20.64	23.89671
20.68	23.89653
20.72	23.89569
20.76	23.89389
20.8	23.89537
20.84	23.89207
20.88	23.88687
20.92	23.89223
20.96	23.89365
21.0	23.89397
21.04	23.89027
21.08	23.89052
21.12	23.89012
21.16	23.88483
21.2	23.88918
21.24	23.88568
21.28	23.88747
21.32	23.88898
21.36	23.88715
21.4	23.88945
21.44	23.88905
21.48	23.88718
21.52	23.88722
21.56	23.88826
21.6	23.88576
21.64	23.88596
21.68	23.88947
21.72	23.88364
21.76	23.88507
21.8	23.88626
21.84	23.88371
21.88	23.88667
21.92	23.8844
21.96	23.88771
22.0	23.88324
22.04	23.8847
22.08	23.88451
22.12	23.88611
22.16	23.88641
22.2	23.88176
22.24	23.88258
22.28	23.88335
22.32	23.88199
22.36	23.8837
22.4	23.88341
22.44	23.88348
22.48	23.88475
22.52	23.88286
22.56	23.87946
22.6	23.88165
22.64	23.87666
22.68	23.88162
22.72	23.88435
22.76	23.88132
22.8	23.88405
22.84	23.85599
22.88	23.8813
22.92	23.89313
22.96	23.88902
23.0	23.89236
23.04	23.89395
23.08	23.89064
23.12	23.89247
23.16	23.89153
23.2	23.89319
23.24	23.89081
23.28	23.88721
23.32	23.88788
23.36	23.8909
23.4	23.88805
23.44	23.88393
23.48	23.88849
23.52	23.89252
23.56	23.88979
23.6	23.88977
23.64	23.89537
23.68	23.89153
23.72	23.89844
23.76	23.88718
23.8	23.88885
23.84	23.89679
23.88	23.88721
23.92	23.89757
23.96	23.89337
24.0	23.89043
24.04	23.8943
24.08	23.88942
24.12	23.8885
24.16	23.89439
24.2	23.88802
24.24	23.89351
24.28	23.89227
24.32	23.88591
24.36	23.88736
24.4	23.88849
24.44	23.88789
24.48	23.88913
24.52	23.88593
24.56	23.8911
24.6	23.89012
24.64	23.89188
24.68	23.89294
24.72	23.89153
24.76	23.89307
24.8	23.89525
24.84	23.89636
24.88	23.89131
24.92	23.89453
24.96	23.89201
25.0	23.89621
25.04	23.89194
25.08	23.8929
25.12	23.89429
25.16	23.89328
25.2	23.88457
25.24	23.89249
25.28	23.88826
25.32	23.89146
25.36	23.88699
25.4	23.8853
25.44	23.88789
25.48	23.88509
25.52	23.89355
25.56	23.89311
25.6	23.88631
25.64	23.89253
25.68	23.88739
25.72	23.88461
25.76	23.89352
25.8	23.88623
25.84	23.88278
25.88	23.89333
25.92	23.89459
25.96	23.8878
26.0	23.888
26.04	23.89082
26.08	23.88672
26.12	23.88725
26.16	23.8934
26.2	23.8886
26.24	23.88872
26.28	23.88995
26.32	23.88693
26.36	23.88797
26.4	23.89096
26.44	23.88182
26.48	23.88667
26.52	23.88863
26.56	23.88541
26.6	23.89449
26.64	23.89365
26.68	23.88721
26.72	23.89229
26.76	23.89247
26.8	23.8898
26.84	23.89505
26.88	23.88904
26.92	23.88953
26.96	23.88928
27.0	23.89015
27.04	23.88797
27.08	23.89247
27.12	23.89699
27.16	23.8912
27.2	23.89317
27.24	23.89204
27.28	23.88582
27.32	23.89101
27.36	23.88774
27.4	23.88503
27.44	23.88445
27.48	23.8833
27.52	23.88312
27.56	23.88756
27.6	23.88666
27.64	23.8871
27.68	23.88849
27.72	23.89137
27.76	23.88522
27.8	23.88901
27.84	23.8882
27.88	23.89276
27.92	23.89845
27.96	23.89206
28.0	23.89476
28.04	23.89937
28.08	23.89888
28.12	23.89619
28.16	23.8967
28.2	23.87642
28.24	23.89821
28.28	23.89262
28.32	23.89923
28.36	23.89029
28.4	23.89354
28.44	23.90088
28.48	23.89255
28.52	23.88983
28.56	23.89305
28.6	23.8943
28.64	23.89378
28.68	23.89513
28.72	23.89261
28.76	23.89076
28.8	23.89536
28.84	23.89069
28.88	23.89157
28.92	23.89034
28.96	23.88889
29.0	23.89297
29.04	23.89226
29.08	23.89888
29.12	23.89058
29.16	23.89275
29.2	23.89565
29.24	23.89034
29.28	23.89494
29.32	23.89569
29.36	23.89487
29.4	23.8905
29.44	23.89378
29.48	23.89363
29.52	23.89105
29.56	23.89313
29.6	23.89352
29.64	23.88766
29.68	23.89612
29.72	23.89752
29.76	23.8918
29.8	23.89786
29.84	23.89738
29.88	23.88849
29.92	23.89032
29.96	23.89163
30.0	23.89125
30.04	23.88902
30.08	23.88762
30.12	23.89307
30.16	23.88739
30.2	23.88802
30.24	23.89442
30.28	23.88988
30.32	23.8893
30.36	23.89182
30.4	23.89284
30.44	23.88979
30.48	23.89064
30.52	23.88728
30.56	23.8867
30.6	23.8868
30.64	23.88519
30.68	23.88565
30.72	23.88411
30.76	23.8848
30.8	23.88405
30.84	23.88686
30.88	23.8876
30.92	23.8806
30.96	23.88835
31.0	23.89111
31.04	23.88977
31.08	23.89433
31.12	23.89334
31.16	23.88722
31.2	23.89531
31.24	23.89166
31.28	23.89299
31.32	23.90146
31.36	23.89626
31.4	23.90105
31.44	23.9028
31.48	23.90341
31.52	23.90462
31.56	23.90781
31.6	23.90411
31.64	23.89938
31.68	23.89748
31.72	23.90007
31.76	23.89357
31.8	23.89656
31.84	23.89648
31.88	23.8936
31.92	23.89003
31.96	23.89407
32.0	23.89049
32.04	23.88472
32.08	23.8848
32.12	23.87892
32.16	23.87859
32.2	23.86534
32.24	23.87013
32.28	23.87978
32.32	23.87166
32.36	23.87062
32.4	23.86871
32.44	23.85902
32.48	23.86183
32.52	23.86014
32.56	23.87189
32.6	23.88167
32.64	23.87831
32.68	23.88176
32.72	23.88232
32.76	23.87865
32.8	23.88655
32.84	23.88091
32.88	23.87567
32.92	23.8701
32.96	23.86447
33.0	23.86186
33.04	23.87314
33.08	23.8756
33.12	23.88483
33.16	23.88666
33.2	23.88666
33.24	23.88394
33.28	23.88469
33.32	23.88365
33.36	23.89055
33.4	23.88969
33.44	23.88838
33.48	23.89102
33.52	23.89606
33.56	23.89186
33.6	23.88504
33.64	23.89134
33.68	23.88805
33.72	23.89532
33.76	23.89333
33.8	23.89069
33.84	23.89452
33.88	23.89302
33.92	23.89626
33.96	23.88776
34.0	23.88255
34.04	23.89119
34.08	23.89841
34.12	23.89543
34.16	23.89316
34.2	23.89934
34.24	23.89496
34.28	23.90144
34.32	23.90494
34.36	23.89777
34.4	23.90317
34.44	23.89624
34.48	23.89711
34.52	23.8922
34.56	23.89047
34.6	23.88956
34.64	23.89012
34.68	23.88838
34.72	23.8844
34.76	23.88461
34.8	23.88747
34.84	23.88623
34.88	23.8912
34.92	23.89287
34.96	23.89111
35.0	23.89853
35.04	23.90071
35.08	23.89485
35.12	23.89984
35.16	23.89381
35.2	23.89249
35.24	23.87083
35.28	23.8819
35.32	23.89034
35.36	23.89769
35.4	23.89049
35.44	23.8806
35.48	23.88361
35.52	23.88173
35.56	23.88127
35.6	23.87846
35.64	23.87463
35.68	23.88344
35.72	23.87471
35.76	23.87238
35.8	23.87955
35.84	23.88634
35.88	23.89304
35.92	23.89972
35.96	23.90404
36.0	23.91722
36.04	23.91356
36.08	23.91364
36.12	23.90729
36.16	23.89996
36.2	23.89839
36.24	23.8965
36.28	23.87762
36.32	23.8838
36.36	23.88327
36.4	23.88637
36.44	23.88625
36.48	23.88062
36.52	23.88237
36.56	23.87582
36.6	23.8795
36.64	23.87781
36.68	23.87708
36.72	23.88614
36.76	23.88107
36.8	23.88203
36.84	23.87811
36.88	23.87776
36.92	23.87224
36.96	23.87579
37.0	23.86861
37.04	23.87065
37.08	23.86935
37.12	23.87102
37.16	23.87064
37.2	23.87035
37.24	23.86842
37.28	23.8661
37.32	23.86671
37.36	23.87025
37.4	23.87082
37.44	23.87651
37.48	23.87912
37.52	23.86977
37.56	23.86841
37.6	23.87529
37.64	23.86995
37.68	23.87982
37.72	23.88121
37.76	23.87642
37.8	23.88237
37.84	23.87802
37.88	23.87498
37.92	23.8824
37.96	23.87273
38.0	23.87704
38.04	23.87064
38.08	23.86604
38.12	23.87532
38.16	23.87393
38.2	23.87939
38.24	23.88243
38.28	23.87589
38.32	23.87422
38.36	23.87685
38.4	23.86684
38.44	23.86079
38.48	23.8542
38.52	23.83699
38.56	23.83244
38.6	23.83295
38.64	23.84088
38.68	23.84232
38.72	23.85382
38.76	23.86388
38.8	23.8689
38.84	23.8644
38.88	23.86079
38.92	23.85924
38.96	23.86345
39.0	23.86438
39.04	23.873
39.08	23.87849
39.12	23.87775
39.16	23.87556
39.2	23.86902
39.24	23.86555
39.28	23.85818
39.32	23.85362
39.36	23.8606
39.4	23.87146
39.44	23.88219
39.48	23.88481
39.52	23.88365
39.56	23.88318
39.6	23.88182
39.64	23.88461
39.68	23.88716
39.72	23.88396
39.76	23.88277
39.8	23.87909
39.84	23.87923
39.88	23.8848
39.92	23.88078
39.96	23.87907
40.0	23.87329
40.04	23.87241
40.08	23.87213
40.12	23.86232
40.16	23.86673
40.2	23.87318
40.24	23.87267
40.28	23.86913
40.32	23.86681
40.36	23.86555
40.4	23.86571
40.44	23.86592
40.48	23.8705
40.52	23.87605
40.56	23.87177
40.6	23.87376
40.64	23.88257
40.68	23.89005
40.72	23.8945
40.76	23.89941
40.8	23.89308
40.84	23.88493
40.88	23.8812
40.92	23.87564
40.96	23.8757
41.0	23.87305
41.04	23.87471
41.08	23.88141
41.12	23.88033
41.16	23.88043
41.2	23.88866
41.24	23.88417
41.28	23.8905
41.32	23.89864
41.36	23.89546
41.4	23.90356
41.44	23.90266
41.48	23.90222
41.52	23.89952
41.56	23.89664
41.6	23.88689
41.64	23.87935
41.68	23.87558
41.72	23.86302
41.76	23.86487
41.8	23.85692
41.84	23.85677
41.88	23.86456
41.92	23.86649
41.96	23.88271
42.0	23.88536
42.04	23.87997
42.08	23.88461
42.12	23.87082
42.16	23.86349
42.2	23.87097
42.24	23.86983
42.28	23.87788
42.32	23.87372
42.36	23.87117
42.4	23.87445
42.44	23.87587
42.48	23.87375
42.52	23.87369
42.56	23.87535
42.6	23.8727
42.64	23.86636
42.68	23.87115
42.72	23.86987
42.76	23.8638
42.8	23.87256
42.84	23.86777
42.88	23.87505
42.92	23.88278
42.96	23.88242
43.0	23.88669
43.04	23.89314
43.08	23.8945
43.12	23.89639
43.16	23.90036
43.2	23.90022
43.24	23.90739
43.28	23.90514
43.32	23.90428
43.36	23.89293
43.4	23.886
43.44	23.88264
43.48	23.87764
43.52	23.86966
43.56	23.87398
43.6	23.86986
43.64	23.86612
43.68	23.87932
43.72	23.88159
43.76	23.89369
43.8	23.89632
43.84	23.89633
43.88	23.90808
43.92	23.90643
43.96	23.90141
44.0	23.90643
44.04	23.91362
44.08	23.91798
44.12	23.90819
44.16	23.91553
44.2	23.91939
44.24	23.91505
44.28	23.91792
44.32	23.91914
44.36	23.918
44.4	23.92064
44.44	23.92387
44.48	23.92577
44.52	23.9297
44.56	23.92834
44.6	23.93423
44.64	23.92937
44.68	23.91727
44.72	23.91615
44.76	23.91522
44.8	23.90555
44.84	23.89507
44.88	23.88466
44.92	23.8813
44.96	23.87811
45.0	23.881
45.04	23.88081
45.08	23.8775
45.12	23.88501
45.16	23.88564
45.2	23.88425
45.24	23.88324
45.28	23.88231
45.32	23.88582
45.36	23.88564
45.4	23.88742
45.44	23.88808
45.48	23.89101
45.52	23.88763
45.56	23.89911
45.6	23.91064
45.64	23.90083
45.68	23.90025
45.72	23.90623
45.76	23.91142
45.8	23.9213
45.84	23.92734
45.88	23.92677
45.92	23.90437
45.96	23.89766
46.0	23.91019
46.04	23.91255
46.08	23.92313
46.12	23.93123
46.16	23.92467
46.2	23.92468
46.24	23.92998
46.28	23.92448
46.32	23.92284
46.36	23.92468
46.4	23.91643
46.44	23.93202
46.48	23.92375
46.52	23.92467
46.56	23.91901
46.6	23.90488
46.64	23.91623
46.68	23.91684
46.72	23.91505
46.76	23.91245
46.8	23.90695
46.84	23.91692
46.88	23.92224
46.92	23.91653
46.96	23.91147
47.0	23.91286
47.04	23.91087
47.08	23.92003
47.12	23.91609
47.16	23.91684
47.2	23.92346
47.24	23.92751
47.28	23.92763
47.32	23.92888
47.36	23.92453
47.4	23.91785
47.44	23.91087
47.48	23.91306
47.52	23.91211
47.56	23.91385
47.6	23.92204
47.64	23.9333
47.68	23.93745
47.72	23.95392
47.76	23.95837
47.8	23.94777
47.84	23.93303
47.88	23.93492
47.92	23.92926
47.96	23.92104
48.0	23.91081
48.04	23.91499
48.08	23.91321
48.12	23.9126
48.16	23.90788
48.2	23.90404
48.24	23.89905
48.28	23.89861
48.32	23.89891
48.36	23.90974
48.4	23.9068
48.44	23.91467
48.48	23.91678
48.52	23.91652
48.56	23.9156
48.6	23.90842
48.64	23.89645
48.68	23.89906
48.72	23.88838
48.76	23.88336
48.8	23.89224
48.84	23.89798
48.88	23.89256
48.92	23.88712
48.96	23.88776
49.0	23.89864
49.04	23.89612
49.08	23.90277
49.12	23.91211
49.16	23.9142
49.2	23.91324
49.24	23.91336
49.28	23.91698
49.32	23.91774
49.36	23.90889
49.4	23.91168
49.44	23.91248
49.48	23.90945
49.52	23.91118
49.56	23.91273
49.6	23.91325
49.64	23.91151
49.68	23.9048
49.72	23.89818
49.76	23.90205
49.8	23.90068
49.84	23.90086
49.88	23.90251
49.92	23.91177
49.96	23.92159
50.0	23.93242
50.04	23.93373
50.08	23.9346
50.12	23.92473
50.16	23.91415
50.2	23.91658
50.24	23.92451
50.28	23.92867
50.32	23.92566
50.36	23.93628
50.4	23.93484
50.44	23.92738
50.48	23.92349
50.52	23.92859
50.56	23.92802
50.6	23.92606
50.64	23.92368
50.68	23.92006
50.72	23.91711
50.76	23.91737
50.8	23.92119
50.84	23.91434
50.88	23.91841
50.92	23.91714
50.96	23.9086
51.0	23.90454
51.04	23.90382
51.08	23.89853
51.12	23.89566
51.16	23.8959
51.2	23.89665
51.24	23.89207
51.28	23.88959
51.32	23.89223
51.36	23.8889
51.4	23.89023
51.44	23.89908
51.48	23.89818
51.52	23.89975
51.56	23.91089
51.6	23.90936
51.64	23.909
51.68	23.9082
51.72	23.91176
51.76	23.90929
51.8	23.90733
51.84	23.90518
51.88	23.9084
51.92	23.90248
51.96	23.91043
52.0	23.90625
52.04	23.89868
52.08	23.89685
52.12	23.89882
52.16	23.89708
52.2	23.89763
52.24	23.89375
52.28	23.89952
52.32	23.89584
52.36	23.89735
52.4	23.90584
52.44	23.90161
52.48	23.90367
52.52	23.9034
52.56	23.90274
52.6	23.90308
52.64	23.90445
52.68	23.89951
52.72	23.89853
52.76	23.89885
52.8	23.89818
52.84	23.89249
52.88	23.89011
52.92	23.88873
52.96	23.89127
53.0	23.88799
53.04	23.89352
53.08	23.8949
53.12	23.8988
53.16	23.89783
53.2	23.90016
53.24	23.90578
53.28	23.90506
53.32	23.90099
53.36	23.90616
53.4	23.89951
53.44	23.89891
53.48	23.90057
53.52	23.89973
53.56	23.8999
53.6	23.89462
53.64	23.89397
53.68	23.90178
53.72	23.89342
53.76	23.89491
53.8	23.89677
53.84	23.89513
53.88	23.89267
53.92	23.88875
53.96	23.89412
54.0	23.89238
54.04	23.88303
54.08	23.89067
54.12	23.89017
54.16	23.88895
54.2	23.89021
54.24	23.88968
54.28	23.89172
54.32	23.88965
54.36	23.89282
54.4	23.89934
54.44	23.89665
54.48	23.89528
54.52	23.90234
54.56	23.89969
54.6	23.89691
54.64	23.90321
54.68	23.89719
54.72	23.89316
54.76	23.89555
54.8	23.89302
54.84	23.892
54.88	23.88506
54.92	23.88805
54.96	23.88446
55.0	23.88173
55.04	23.88446
55.08	23.88419
55.12	23.87875
55.16	23.88229
55.2	23.87962
55.24	23.88208
55.28	23.88609
55.32	23.88161
55.36	23.88913
55.4	23.88736
55.44	23.88628
55.48	23.88603
55.52	23.88496
55.56	23.88742
55.6	23.88928
55.64	23.88313
55.68	23.88792
55.72	23.88164
55.76	23.88298
55.8	23.88858
55.84	23.88281
55.88	23.88179
55.92	23.88643
55.96	23.88702
56.0	23.88811
56.04	23.88911
56.08	23.89287
56.12	23.89693
56.16	23.89209
56.2	23.8925
56.24	23.89467
56.28	23.8902
56.32	23.88792
56.36	23.88799
56.4	23.88673
56.44	23.88429
56.48	23.88159
56.52	23.88408
56.56	23.88168
56.6	23.8831
56.64	23.88037
56.68	23.88193
56.72	23.8829
56.76	23.88313
56.8	23.88614
56.84	23.88843
56.88	23.88441
56.92	23.88705
56.96	23.89124
57.0	23.88393
57.04	23.88423
57.08	23.89185
57.12	23.88213
57.16	23.88858
57.2	23.88727
57.24	23.88255
57.28	23.88586
57.32	23.8829
57.36	23.88087
57.4	23.88055
57.44	23.87767
57.48	23.87404
57.52	23.87567
57.56	23.87154
57.6	23.87016
57.64	23.87053
57.68	23.87029
57.72	23.86987
57.76	23.86752
57.8	23.87238
57.84	23.86946
57.88	23.87326
57.92	23.87485
57.96	23.87485
58.0	23.8712
58.04	23.87984
58.08	23.87776
58.12	23.87421
58.16	23.88321
58.2	23.87636
58.24	23.8838
58.28	23.88213
58.32	23.87775
58.36	23.88266
58.4	23.88188
58.44	23.87691
58.48	23.87619
58.52	23.87653
58.56	23.87753
58.6	23.87802
58.64	23.87535
58.68	23.87204
58.72	23.87601
58.76	23.87177
58.8	23.87035
58.84	23.87053
58.88	23.87239
58.92	23.86679
58.96	23.87001
59.0	23.87277
59.04	23.86516
59.08	23.8696
59.12	23.86452
59.16	23.86336
59.2	23.86826
59.24	23.86357
59.28	23.86247
59.32	23.8643
59.36	23.86424
59.4	23.85733
59.44	23.86192
59.48	23.85869
59.52	23.85777
59.56	23.85828
59.6	23.85675
59.64	23.8625
59.68	23.86176
59.72	23.86014
59.76	23.86632
59.8	23.85812
59.84	23.86333
59.88	23.86172
59.92	23.8528
59.96	23.86029
60.0	23.85219
60.04	23.85269
60.08	23.85689
60.12	23.85204
60.16	23.86482
60.2	23.85428
60.24	23.85736
60.28	23.8588
60.32	23.85376
60.36	23.85135
60.4	23.84508
60.44	23.83694
60.48	23.83611
60.52	23.82558
60.56	23.83235
60.6	23.83662
60.64	23.83925
60.68	23.83652
60.72	23.84566
60.76	23.84494
60.8	23.84053
60.84	23.84543
60.88	23.83904
60.92	23.84621
60.96	23.84808
61.0	23.84277
61.04	23.85022
61.08	23.8452
61.12	23.84601
61.16	23.85239
61.2	23.84769
61.24	23.85088
61.28	23.85289
61.32	23.84773
61.36	23.8492
61.4	23.84081
61.44	23.83852
61.48	23.83699
61.52	23.83488
61.56	23.84305
61.6	23.84065
61.64	23.83711
61.68	23.83139
61.72	23.82925
61.76	23.82764
61.8	23.82468
61.84	23.82597
61.88	23.83237
61.92	23.83276
61.96	23.83699
62.0	23.8385
62.04	23.83183
62.08	23.84058
62.12	23.83713
62.16	23.84175
62.2	23.84059
62.24	23.84029
62.28	23.84532
62.32	23.84215
62.36	23.8423
62.4	23.84795
62.44	23.84306
62.48	23.84564
62.52	23.84625
62.56	23.84216
62.6	23.84358
62.64	23.8412
62.68	23.84152
62.72	23.83868
62.76	23.83186
62.8	23.83403
62.84	23.82399
62.88	23.81865
62.92	23.81761
62.96	23.82402
63.0	23.81763
63.04	23.81943
63.08	23.8222
63.12	23.83081
63.16	23.83801
63.2	23.84735
63.24	23.85608
63.28	23.85889
63.32	23.85249
63.36	23.84195
63.4	23.83719
63.44	23.83032
63.48	23.82304
63.52	23.82443
63.56	23.8253
63.6	23.82553
63.64	23.82198
63.68	23.82448
63.72	23.8259
63.76	23.82567
63.8	23.82698
63.84	23.82632
63.88	23.83206
63.92	23.82735
63.96	23.83252
64.0	23.83615
64.04	23.83437
64.08	23.84326
64.12	23.85039
64.16	23.84145
64.2	23.84549
64.24	23.84604
64.28	23.84081
64.32	23.84229
64.36	23.83142
64.4	23.83269
64.44	23.83107
64.48	23.82515
64.52	23.82571
64.56	23.83128
64.6	23.82571
64.64	23.83359
64.68	23.83249
64.72	23.82748
64.76	23.83145
64.8	23.82448
64.84	23.82468
64.88	23.82727
64.92	23.82315
64.96	23.82455
65.0	23.82291
65.04	23.82233
65.08	23.81876
65.12	23.81956
65.16	23.82643
65.2	23.81822
65.24	23.81862
65.28	23.82887
65.32	23.82782
65.36	23.8266
65.4	23.82419
65.44	23.8187
65.48	23.81807
65.52	23.81656
65.56	23.82045
65.6	23.83063
65.64	23.83316
65.68	23.83022
65.72	23.83592
65.76	23.83061
65.8	23.83339
65.84	23.82536
65.88	23.82137
65.92	23.82195
65.96	23.82317
66.0	23.8259
66.04	23.82393
66.08	23.8269
66.12	23.8277
66.16	23.83176
66.2	23.82784
66.24	23.8356
66.28	23.84068
66.32	23.83391
66.36	23.84596
66.4	23.84302
66.44	23.84769
66.48	23.84904
66.52	23.84489
66.56	23.84282
66.6	23.84268
66.64	23.8391
66.68	23.84099
66.72	23.83957
66.76	23.8382
66.8	23.83475
66.84	23.84001
66.88	23.84718
66.92	23.83223
66.96	23.83678
67.0	23.83807
67.04	23.83347
67.08	23.8425
67.12	23.84161
67.16	23.84036
67.2	23.83522
67.24	23.83447
67.28	23.83394
67.32	23.83784
67.36	23.83734
67.4	23.83298
67.44	23.836
67.48	23.83278
67.52	23.83717
67.56	23.83362
67.6	23.83426
67.64	23.83351
67.68	23.83655
67.72	23.83688
67.76	23.83571
67.8	23.83562
67.84	23.83701
67.88	23.83517
67.92	23.83633
67.96	23.83795
68.0	23.83336
68.04	23.83473
68.08	23.8302
68.12	23.82892
68.16	23.82532
68.2	23.82327
68.24	23.82355
68.28	23.82368
68.32	23.82069
68.36	23.8308
68.4	23.82382
68.44	23.82622
68.48	23.82941
68.52	23.82869
68.56	23.82953
68.6	23.83215
68.64	23.82921
68.68	23.83531
68.72	23.83272
68.76	23.83601
68.8	23.83704
68.84	23.83186
68.88	23.83609
68.92	23.8298
68.96	23.82413
69.0	23.82259
69.04	23.81447
69.08	23.8147
69.12	23.81413
69.16	23.81625
69.2	23.81569
69.24	23.81207
69.28	23.81055
69.32	23.81387
69.36	23.82013
69.4	23.81764
69.44	23.81996
69.48	23.81512
69.52	23.81691
69.56	23.81676
69.6	23.81187
69.64	23.81879
69.68	23.82329
69.72	23.82761
69.76	23.83311
69.8	23.82957
69.84	23.8428
69.88	23.84891
69.92	23.83934
69.96	23.8407
70.0	23.83578
70.04	23.82901
70.08	23.83546
70.12	23.82411
70.16	23.83127
70.2	23.82779
70.24	23.8194
70.28	23.82239
70.32	23.82863
70.36	23.81436
70.4	23.84366
70.44	23.83563
70.48	23.82979
70.52	23.81831
70.56	23.82686
70.6	23.81245
70.64	23.798
70.68	23.81087
70.72	23.82291
70.76	23.83556
70.8	23.8412
70.84	23.83513
70.88	23.82686
70.92	23.83171
70.96	23.83476
71.0	23.83179
71.04	23.83475
71.08	23.82025
71.12	23.8165
71.16	23.81857
71.2	23.81529
71.24	23.81244
71.28	23.8093
71.32	23.80544
71.36	23.81268
71.4	23.81001
71.44	23.80783
71.48	23.8083
71.52	23.81209
71.56	23.81198
71.6	23.80968
71.64	23.8054
71.68	23.814
71.72	23.80759
71.76	23.80544
71.8	23.80769
71.84	23.81308
71.88	23.81609
71.92	23.81355
71.96	23.82158
72.0	23.82317
72.04	23.8214
72.08	23.82436
72.12	23.81865
72.16	23.81378
72.2	23.81462
72.24	23.8112
72.28	23.80412
72.32	23.79778
72.36	23.79921
72.4	23.80881
72.44	23.81149
72.48	23.81473
72.52	23.81935
72.56	23.82433
72.6	23.82033
72.64	23.81778
72.68	23.81366
72.72	23.82129
72.76	23.81702
72.8	23.80241
72.84	23.81322
72.88	23.82036
72.92	23.82292
72.96	23.81993
73.0	23.81148
73.04	23.82571
73.08	23.82756
73.12	23.81969
73.16	23.81984
73.2	23.82478
73.24	23.81488
73.28	23.81384
73.32	23.80902
73.36	23.8201
73.4	23.81503
73.44	23.81461
73.48	23.80795
73.52	23.81519
73.56	23.82022
73.6	23.79143
73.64	23.78378
73.68	23.78539
73.72	23.78351
73.76	23.80388
73.8	23.81609
73.84	23.81593
73.88	23.82965
73.92	23.8275
73.96	23.82945
74.0	23.8156
74.04	23.78934
74.08	23.78432
74.12	23.80003
74.16	23.79362
74.2	23.78983
74.24	23.79477
74.28	23.78091
74.32	23.78697
74.36	23.78662
74.4	23.79153
74.44	23.79823
74.48	23.80511
74.52	23.81184
74.56	23.81207
74.6	23.81232
74.64	23.82178
74.68	23.82748
74.72	23.82683
74.76	23.82581
74.8	23.81842
74.84	23.81674
74.88	23.80844
74.92	23.80423
74.96	23.8044
75.0	23.80295
75.04	23.77144
75.08	23.7648
75.12	23.78038
75.16	23.78593
75.2	23.79565
75.24	23.79985
75.28	23.80783
75.32	23.81065
75.36	23.82288
75.4	23.82184
75.44	23.80981
75.48	23.79739
75.52	23.8123
75.56	23.82526
75.6	23.82713
75.64	23.81837
75.68	23.81625
75.72	23.81511
75.76	23.814
75.8	23.81387
75.84	23.80981
75.88	23.81622
75.92	23.8269
75.96	23.82382
76.0	23.82887
76.04	23.83138
76.08	23.83069
76.12	23.83456
76.16	23.82803
76.2	23.8266
76.24	23.82896
76.28	23.82278
76.32	23.83051
76.36	23.82228
76.4	23.81844
76.44	23.82291
76.48	23.83095
76.52	23.82123
76.56	23.82611
76.6	23.82359
76.64	23.82529
76.68	23.82497
76.72	23.82314
76.76	23.83305
76.8	23.82214
76.84	23.82094
76.88	23.82529
76.92	23.8213
76.96	23.82047
77.0	23.82098
77.04	23.81482
77.08	23.81627
77.12	23.81639
77.16	23.81245
77.2	23.82179
77.24	23.82269
77.28	23.82465
77.32	23.82414
77.36	23.82811
77.4	23.82503
77.44	23.83005
77.48	23.8288
77.52	23.83534
77.56	23.83182
77.6	23.83092
77.64	23.83542
77.68	23.827
77.72	23.83275
77.76	23.83528
77.8	23.83102
77.84	23.83565
77.88	23.83121
77.92	23.83318
77.96	23.83116
78.0	23.83502
78.04	23.83455
78.08	23.83281
78.12	23.83809
78.16	23.83585
78.2	23.8387
78.24	23.83749
78.28	23.83482
78.32	23.8362
78.36	23.83667
78.4	23.83623
78.44	23.83145
78.48	23.8304
78.52	23.82619
78.56	23.82962
78.6	23.83127
78.64	23.83237
78.68	23.83232
78.72	23.83919
78.76	23.8371
78.8	23.83676
78.84	23.83852
78.88	23.83501
78.92	23.83908
78.96	23.8364
79.0	23.83716
79.04	23.83601
79.08	23.82982
79.12	23.8345
79.16	23.83151
79.2	23.83513
79.24	23.83234
79.28	23.83325
79.32	23.83194
79.36	23.83562
79.4	23.82939
79.44	23.83926
79.48	23.83057
79.52	23.83122
79.56	23.8387
79.6	23.83394
79.64	23.83266
79.68	23.83575
79.72	23.83351
79.76	23.83279
79.8	23.82991
79.84	23.83398
79.88	23.8343
79.92	23.83217
79.96	23.82658
80.0	23.82629
80.04	23.82455
80.08	23.83313
80.12	23.83061
80.16	23.83853
80.2	23.83618
80.24	23.82907
80.28	23.83154
80.32	23.82732
80.36	23.83157
80.4	23.83755
80.44	23.83623
80.48	23.83607
80.52	23.82732
80.56	23.83379
80.6	23.82889
80.64	23.82652
80.68	23.82617
80.72	23.82773
80.76	23.83003
80.8	23.82964
80.84	23.83247
80.88	23.82837
80.92	23.82788
80.96	23.83376
81.0	23.83583
81.04	23.8324
81.08	23.83557
81.12	23.83017
81.16	23.82808
81.2	23.82733
81.24	23.83269
81.28	23.80519
81.32	23.82413
81.36	23.82918
81.4	23.82486
81.44	23.82539
81.48	23.82368
81.52	23.81996
81.56	23.82916
81.6	23.82373
81.64	23.81889
81.68	23.82596
81.72	23.82266
81.76	23.82689
81.8	23.82414
81.84	23.82249
81.88	23.82326
81.92	23.82433
81.96	23.82365
82.0	23.8268
82.04	23.81311
82.08	23.81966
82.12	23.82521
82.16	23.82112
82.2	23.82303
82.24	23.81947
82.28	23.82364
82.32	23.82164
82.36	23.82086
82.4	23.82002
82.44	23.8152
82.48	23.81703
82.52	23.82156
82.56	23.82205
82.6	23.81493
82.64	23.81694
82.68	23.82028
82.72	23.81717
82.76	23.81958
82.8	23.81691
82.84	23.82375
82.88	23.82027
82.92	23.81523
82.96	23.8157
83.0	23.81406
83.04	23.82106
83.08	23.81975
83.12	23.81145
83.16	23.81519
83.2	23.81841
83.24	23.8163
83.28	23.81276
83.32	23.81625
83.36	23.82054
83.4	23.81387
83.44	23.81653
83.48	23.81741
83.52	23.81612
83.56	23.81468
83.6	23.81621
83.64	23.81317
83.68	23.82175
83.72	23.8167
83.76	23.81491
83.8	23.81633
83.84	23.81523
83.88	23.81619
83.92	23.81705
83.96	23.81505
84.0	23.82037
84.04	23.81287
84.08	23.81462
84.12	23.80864
84.16	23.81525
84.2	23.81349
84.24	23.81401
84.28	23.81657
84.32	23.81789
84.36	23.81238
84.4	23.8116
84.44	23.81436
84.48	23.81078
84.52	23.81335
84.56	23.81166
84.6	23.81003
84.64	23.81747
84.68	23.81404
84.72	23.81271
84.76	23.81604
84.8	23.81152
84.84	23.81363
84.88	23.81462
84.92	23.81425
84.96	23.81694
85.0	23.81021
85.04	23.81017
85.08	23.8177
85.12	23.81023
85.16	23.81442
85.2	23.81459
85.24	23.8152
85.28	23.81689
85.32	23.81573
85.36	23.82082
85.4	23.82117
85.44	23.81779
85.48	23.81464
85.52	23.81
85.56	23.81416
85.6	23.81729
85.64	23.81238
85.68	23.81053
85.72	23.81647
85.76	23.81322
85.8	23.81224
85.84	23.80933
85.88	23.81621
85.92	23.81107
85.96	23.81537
86.0	23.81282
86.04	23.8125
86.08	23.81302
86.12	23.81805
86.16	23.81314
86.2	23.81369
86.24	23.81422
86.28	23.81627
86.32	23.80843
86.36	23.8091
86.4	23.81361
86.44	23.8127
86.48	23.81226
86.52	23.81339
86.56	23.81976
86.6	23.81448
86.64	23.81436
86.68	23.81532
86.72	23.81421
86.76	23.8175
86.8	23.81331
86.84	23.81799
86.88	23.81706
86.92	23.81322
86.96	23.81807
87.0	23.82001
87.04	23.81322
87.08	23.81654
87.12	23.81866
87.16	23.81947
87.2	23.81966
87.24	23.81229
87.28	23.81894
87.32	23.817
87.36	23.81616
87.4	23.8235
87.44	23.81822
87.48	23.81496
87.52	23.82022
87.56	23.81792
87.6	23.81531
87.64	23.81113
87.68	23.81799
87.72	23.81631
87.76	23.81255
87.8	23.813
87.84	23.81824
87.88	23.81624
87.92	23.81703
87.96	23.81218
88.0	23.81548
88.04	23.81754
88.08	23.81499
88.12	23.81087
88.16	23.81104
88.2	23.81396
88.24	23.81291
88.28	23.81758
88.32	23.81516
88.36	23.80943
88.4	23.81285
88.44	23.81273
88.48	23.81453
88.52	23.80959
88.56	23.81412
88.6	23.81335
88.64	23.81557
88.68	23.81828
88.72	23.80492
88.76	23.8163
88.8	23.81645
88.84	23.81403
88.88	23.81117
88.92	23.81587
88.96	23.81422
89.0	23.81735
89.04	23.80663
89.08	23.80692
89.12	23.81259
89.16	23.81229
89.2	23.80812
89.24	23.80994
89.28	23.81702
89.32	23.81792
89.36	23.81056
89.4	23.81041
89.44	23.81862
89.48	23.81491
89.52	23.81847
89.56	23.81522
89.6	23.81413
89.64	23.81139
89.68	23.81493
89.72	23.81171
89.76	23.81012
89.8	23.80972
89.84	23.8118
89.88	23.81038
89.92	23.80775
89.96	23.81306
90.0	23.80872
90.04	23.80684
90.08	23.80779
90.12	23.80956
90.16	23.8129
90.2	23.80722
90.24	23.80473
90.28	23.81133
90.32	23.81053
90.36	23.80861
90.4	23.80759
90.44	23.80882
90.48	23.81049
90.52	23.80556
90.56	23.81122
90.6	23.80951
90.64	23.81213
90.68	23.81137
90.72	23.80734
90.76	23.80789
90.8	23.81448
90.84	23.81274
90.88	23.81268
90.92	23.8087
90.96	23.80963
91.0	23.81544
91.04	23.81062
91.08	23.81255
91.12	23.81337
91.16	23.8091
91.2	23.81589
91.24	23.81767
91.28	23.814
91.32	23.81583
91.36	23.81523
91.4	23.81038
91.44	23.81711
91.48	23.81694
91.52	23.81583
91.56	23.81255
91.6	23.81219
91.64	23.81763
91.68	23.81294
91.72	23.81766
91.76	23.81538
91.8	23.81792
91.84	23.81725
91.88	23.81898
91.92	23.81494
91.96	23.81775
92.0	23.82455
92.04	23.81548
92.08	23.81354
92.12	23.80882
92.16	23.81973
92.2	23.81836
92.24	23.80994
92.28	23.81917
92.32	23.81538
92.36	23.81552
92.4	23.8176
92.44	23.80856
92.48	23.81621
92.52	23.81259
92.56	23.81467
92.6	23.81192
92.64	23.80878
92.68	23.81311
92.72	23.81287
92.76	23.79808
92.8	23.8065
92.84	23.8154
92.88	23.80876
92.92	23.80911
92.96	23.80894
93.0	23.81087
93.04	23.80962
93.08	23.80602
93.12	23.80537
93.16	23.81325
93.2	23.80672
93.24	23.80472
93.28	23.80429
93.32	23.80919
93.36	23.80893
93.4	23.80392
93.44	23.80751
93.48	23.80901
93.52	23.80809
93.56	23.8087
93.6	23.80542
93.64	23.80658
93.68	23.81284
93.72	23.81104
93.76	23.80812
93.8	23.81094
93.84	23.80638
93.88	23.80925
93.92	23.80511
93.96	23.80443
94.0	23.80373
94.04	23.80788
94.08	23.80106
94.12	23.80539
94.16	23.80618
94.2	23.811
94.24	23.80426
94.28	23.80635
94.32	23.8073
94.36	23.80363
94.4	23.80556
94.44	23.80402
94.48	23.80705
94.52	23.80681
94.56	23.80449
94.6	23.80408
94.64	23.808
94.68	23.80063
94.72	23.80354
94.76	23.80229
94.8	23.80064
94.84	23.80739
94.88	23.80753
94.92	23.80103
94.96	23.80104
95.0	23.80472
95.04	23.8031
95.08	23.80261
95.12	23.80109
95.16	23.80379
95.2	23.80077
95.24	23.798
95.28	23.80132
95.32	23.80295
95.36	23.7993
95.4	23.79695
95.44	23.79794
95.48	23.80263
95.52	23.80058
95.56	23.79953
95.6	23.79822
95.64	23.8024
95.68	23.79892
95.72	23.79366
95.76	23.7953
95.8	23.79565
95.84	23.80013
95.88	23.79823
95.92	23.79472
95.96	23.79539
96.0	23.79947
96.04	23.79912
96.08	23.79556
96.12	23.79381
96.16	23.79913
96.2	23.79382
96.24	23.80022
96.28	23.80173
96.32	23.79475
96.36	23.79712
96.4	23.79669
96.44	23.80544
96.48	23.79982
96.52	23.79274
96.56	23.80069
96.6	23.79932
96.64	23.80006
96.68	23.79939
96.72	23.7991
96.76	23.80476
96.8	23.79625
96.84	23.79807
96.88	23.79887
96.92	23.80283
96.96	23.80353
97.0	23.79788
97.04	23.7988
97.08	23.79576
97.12	23.79869
97.16	23.79489
97.2	23.79614
97.24	23.7942
97.28	23.79681
97.32	23.80038
97.36	23.79576
97.4	23.79601
97.44	23.79645
97.48	23.79565
97.52	23.8026
97.56	23.80312
97.6	23.79663
97.64	23.79576
97.68	23.7997
97.72	23.80614
97.76	23.80025
97.8	23.79575
97.84	23.8054
97.88	23.80278
97.92	23.80627
97.96	23.80286
98.0	23.79878
98.04	23.80717
98.08	23.81012
98.12	23.80316
98.16	23.80368
98.2	23.80273
98.24	23.8085
98.28	23.80887
98.32	23.80624
98.36	23.80367
98.4	23.80495
98.44	23.80966
98.48	23.81044
98.52	23.80321
98.56	23.80411
98.6	23.8085
98.64	23.80696
98.68	23.80748
98.72	23.80981
98.76	23.80118
98.8	23.80606
98.84	23.80963
98.88	23.80376
98.92	23.80234
98.96	23.80493
99.0	23.80565
99.04	23.80338
99.08	23.79839
99.12	23.80585
99.16	23.80603
99.2	23.80238
99.24	23.80301
99.28	23.80432
99.32	23.80484
99.36	23.80566
99.4	23.80463
99.44	23.80911
99.48	23.80107
99.52	23.80034
99.56	23.80386
99.6	23.80643
99.64	23.80261
99.68	23.80412
99.72	23.80719
99.76	23.80829
99.8	23.80705
99.84	23.80934
99.88	23.81042
99.92	23.80428
99.96	23.80453
100.0	23.80521
100.04	23.80115
100.08	23.8019
100.12	23.80133
100.16	23.80267
100.2	23.80559
100.24	23.80098
100.28	23.7963
100.32	23.80426
100.36	23.80005
100.4	23.80072
100.44	23.79813
100.48	23.80292
100.52	23.80304
100.56	23.79823
100.6	23.79778
100.64	23.7988
100.68	23.79797
100.72	23.80376
100.76	23.80153
100.8	23.79564
100.84	23.80322
100.88	23.80299
100.92	23.80244
100.96	23.80573
101.0	23.7971
101.04	23.80127
101.08	23.80537
101.12	23.80309
101.16	23.80586
101.2	23.80049
101.24	23.80675
101.28	23.80756
101.32	23.80525
101.36	23.80304
101.4	23.80382
101.44	23.80562
101.48	23.80617
101.52	23.80168
101.56	23.80168
101.6	23.80476
101.64	23.80099
101.68	23.79601
101.72	23.79469
101.76	23.80095
101.8	23.80443
101.84	23.79921
101.88	23.79288
101.92	23.80339
101.96	23.80077
102.0	23.79761
102.04	23.79926
102.08	23.79773
102.12	23.79939
102.16	23.79659
102.2	23.79813
102.24	23.8076
102.28	23.80035
102.32	23.80116
102.36	23.80173
102.4	23.80458
102.44	23.80501
102.48	23.7991
102.52	23.79932
102.56	23.80186
102.6	23.80203
102.64	23.80609
102.68	23.80209
102.72	23.79547
102.76	23.79904
102.8	23.79927
102.84	23.7959
102.88	23.79456
102.92	23.79399
102.96	23.79555
103.0	23.79123
103.04	23.78824
103.08	23.78955
103.12	23.78758
103.16	23.79135
103.2	23.79131
103.24	23.78738
103.28	23.78627
103.32	23.78658
103.36	23.79236
103.4	23.79353
103.44	23.79228
103.48	23.7877
103.52	23.79826
103.56	23.79047
103.6	23.79245
103.64	23.79065
103.68	23.79147
103.72	23.79582
103.76	23.79112
103.8	23.78708
103.84	23.7915
103.88	23.79112
103.92	23.79002
103.96	23.79326
104.0	23.79443
104.04	23.79507
104.08	23.7881
104.12	23.78345
104.16	23.7966
104.2	23.79391
104.24	23.78928
104.28	23.78735
104.32	23.79318
104.36	23.7897
104.4	23.79143
104.44	23.78854
104.48	23.79123
104.52	23.78938
104.56	23.79179
104.6	23.7921
104.64	23.78349
104.68	23.79109
104.72	23.79248
104.76	23.78874
104.8	23.78894
104.84	23.78824
104.88	23.7903
104.92	23.78989
104.96	23.78294
105.0	23.79184
105.04	23.79134
105.08	23.7854
105.12	23.78845
105.16	23.7865
105.2	23.79086
105.24	23.79129
105.28	23.79289
105.32	23.78828
105.36	23.78589
105.4	23.7885
105.44	23.79146
105.48	23.7888
105.52	23.78419
105.56	23.78876
105.6	23.78743
105.64	23.78874
105.68	23.78522
105.72	23.78569
105.76	23.79303
105.8	23.78424
105.84	23.78246
105.88	23.78838
105.92	23.78432
105.96	23.78345
106.0	23.78267
106.04	23.78439
106.08	23.78351
106.12	23.78172
106.16	23.78337
106.2	23.78685
106.24	23.7858
106.28	23.79015
106.32	23.78966
106.36	23.78802
106.4	23.78761
106.44	23.7865
106.48	23.78624
106.52	23.79333
106.56	23.78642
106.6	23.78728
106.64	23.79015
106.68	23.78897
106.72	23.78888
106.76	23.78339
106.8	23.78954
106.84	23.78491
106.88	23.78532
106.92	23.78729
106.96	23.78499
107.0	23.78552
107.04	23.79027
107.08	23.78531
107.12	23.78265
107.16	23.78795
107.2	23.78755
107.24	23.78497
107.28	23.78523
107.32	23.78752
107.36	23.78949
107.4	23.78748
107.44	23.78418
107.48	23.78607
107.52	23.78378
107.56	23.78392
107.6	23.78156
107.64	23.77969
107.68	23.78796
107.72	23.78215
107.76	23.78146
107.8	23.7897
107.84	23.78387
107.88	23.78175
107.92	23.78717
107.96	23.78397
108.0	23.7803
108.04	23.77875
108.08	23.78511
108.12	23.78371
108.16	23.78038
108.2	23.78137
108.24	23.78627
108.28	23.78505
108.32	23.78316
108.36	23.78133
108.4	23.78308
108.44	23.78905
108.48	23.78223
108.52	23.77748
108.56	23.78481
108.6	23.78224
108.64	23.78148
108.68	23.7803
108.72	23.78407
108.76	23.7809
108.8	23.78285
108.84	23.78447
108.88	23.78188
108.92	23.77684
108.96	23.78436
109.0	23.78326
109.04	23.78064
109.08	23.78438
109.12	23.78583
109.16	23.78493
109.2	23.78505
109.24	23.77957
109.28	23.78888
109.32	23.77954
109.36	23.78174
109.4	23.79005
109.44	23.78165
109.48	23.77913
109.52	23.7849
109.56	23.78377
109.6	23.78378
109.64	23.7809
109.68	23.78784
109.72	23.78516
109.76	23.78192
109.8	23.78256
109.84	23.79091
109.88	23.78271
109.92	23.78613
109.96	23.78413
110.0	23.78011
110.04	23.78329
110.08	23.78452
110.12	23.77826
110.16	23.77869
110.2	23.78021
110.24	23.78554
110.28	23.78209
110.32	23.77521
110.36	23.78102
110.4	23.78294
110.44	23.77957
110.48	23.78548
110.52	23.78252
110.56	23.78328
110.6	23.78105
110.64	23.7778
110.68	23.78755
110.72	23.78198
110.76	23.78082
110.8	23.7896
110.84	23.78165
110.88	23.78444
110.92	23.78592
110.96	23.78903
111.0	23.78609
111.04	23.78508
111.08	23.78607
111.12	23.79227
111.16	23.78406
111.2	23.78886
111.24	23.78751
111.28	23.78423
111.32	23.7847
111.36	23.78812
111.4	23.78633
111.44	23.78337
111.48	23.78256
111.52	23.78841
111.56	23.78551
111.6	23.78242
111.64	23.7876
111.68	23.79042
111.72	23.7787
111.76	23.77748
111.8	23.77904
111.84	23.7765
111.88	23.78601
111.92	23.77989
111.96	23.78334
112.0	23.77455
112.04	23.78354
112.08	23.78348
112.12	23.77885
112.16	23.77878
112.2	23.78139
112.24	23.77896
112.28	23.77911
112.32	23.7796
112.36	23.7834
112.4	23.78749
112.44	23.78246
112.48	23.7776
112.52	23.78189
112.56	23.78262
112.6	23.78447
112.64	23.78325
112.68	23.78114
112.72	23.77928
112.76	23.78487
112.8	23.78198
112.84	23.7832
112.88	23.78593
112.92	23.78738
112.96	23.78333
113.0	23.77791
113.04	23.78348
113.08	23.78557
113.12	23.78391
113.16	23.78278
113.2	23.78215
113.24	23.78062
113.28	23.77849
113.32	23.77724
113.36	23.78603
113.4	23.78094
113.44	23.78207
113.48	23.78316
113.52	23.78575
113.56	23.78499
113.6	23.77574
113.64	23.78032
113.68	23.78323
113.72	23.77669
113.76	23.78156
113.8	23.7821
113.84	23.78668
113.88	23.78754
113.92	23.77965
113.96	23.78404
114.0	23.78781
114.04	23.77951
114.08	23.77753
114.12	23.78233
114.16	23.78102
114.2	23.77954
114.24	23.7821
114.28	23.78629
114.32	23.78236
114.36	23.78162
114.4	23.78468
114.44	23.78537
114.48	23.78285
114.52	23.78189
114.56	23.78679
114.6	23.78627
114.64	23.78258
114.68	23.77821
114.72	23.77988
114.76	23.785
114.8	23.78285
114.84	23.78365
114.88	23.78354
114.92	23.78665
114.96	23.78479
115.0	23.77707
115.04	23.77982
115.08	23.78539
115.12	23.78357
115.16	23.77742
115.2	23.77589
115.24	23.7744
115.28	23.78107
115.32	23.78008
115.36	23.77737
115.4	23.7778
115.44	23.77647
115.48	23.78194
115.52	23.77751
115.56	23.7728
115.6	23.77808
115.64	23.77422
115.68	23.78081
115.72	23.78047
115.76	23.77768
115.8	23.77579
115.84	23.77916
115.88	23.77979
115.92	23.78032
115.96	23.7812
116.0	23.78056
116.04	23.7831
116.08	23.77866
116.12	23.78169
116.16	23.77951
116.2	23.78259
116.24	23.78156
116.28	23.77814
116.32	23.77809
116.36	23.7793
116.4	23.77879
116.44	23.77908
116.48	23.78346
116.52	23.77882
116.56	23.78484
116.6	23.78441
116.64	23.78137
116.68	23.78072
116.72	23.78221
116.76	23.78122
116.8	23.77661
116.84	23.76218
116.88	23.77403
116.92	23.77928
116.96	23.78026
117.0	23.77609
117.04	23.77528
117.08	23.77533
117.12	23.78029
117.16	23.77682
117.2	23.77966
117.24	23.77887
117.28	23.77751
117.32	23.78148
117.36	23.78006
117.4	23.7775
117.44	23.7793
117.48	23.77573
117.52	23.77487
117.56	23.7764
117.6	23.77867
117.64	23.78201
117.68	23.7796
117.72	23.77724
117.76	23.77672
117.8	23.77968
117.84	23.77913
117.88	23.7724
117.92	23.77368
117.96	23.77629
118.0	23.77644
118.04	23.7733
118.08	23.7757
118.12	23.77017
118.16	23.77563
118.2	23.77025
118.24	23.77197
118.28	23.77054
118.32	23.77388
118.36	23.77142
118.4	23.76981
118.44	23.76711
118.48	23.7738
118.52	23.77068
118.56	23.76802
118.6	23.77568
118.64	23.77498
118.68	23.77036
118.72	23.77193
118.76	23.77193
118.8	23.77158
118.84	23.771
118.88	23.7673
118.92	23.77296
118.96	23.76903
119.0	23.76918
119.04	23.76427
119.08	23.76152
119.12	23.7681
119.16	23.76974
119.2	23.7673
119.24	23.77014
119.28	23.76875
119.32	23.76971
119.36	23.77342
119.4	23.77573
119.44	23.77512
119.48	23.76834
119.52	23.76926
119.56	23.7709
119.6	23.76608
119.64	23.7648
119.68	23.77109
119.72	23.76793
119.76	23.76564
119.8	23.76488
119.84	23.76752
119.88	23.76747
119.92	23.7639
119.96	23.76529
120.0	23.7697
120.04	23.76411
120.08	23.76486
120.12	23.76654
120.16	23.76614
120.2	23.76518
120.24	23.76306
120.28	23.76065
120.32	23.76695
120.36	23.75908
120.4	23.7572
120.44	23.76134
120.48	23.75981
120.52	23.75874
120.56	23.75664
120.6	23.75642
120.64	23.7621
120.68	23.75543
120.72	23.75874
120.76	23.76323
120.8	23.76115
120.84	23.75978
120.88	23.75919
120.92	23.76146
120.96	23.76462
121.0	23.75845
121.04	23.76118
121.08	23.75996
121.12	23.76524
121.16	23.76593
121.2	23.76241
121.24	23.76657
121.28	23.76967
121.32	23.76884
121.36	23.76723
121.4	23.7668
121.44	23.7683
121.48	23.76706
121.52	23.77045
121.56	23.76372
121.6	23.76057
121.64	23.76231
121.68	23.75958
121.72	23.76231
121.76	23.75763
121.8	23.7635
121.84	23.76251
121.88	23.75832
121.92	23.75824
121.96	23.7623
122.0	23.76331
122.04	23.76204
122.08	23.75945
122.12	23.76794
122.16	23.76657
122.2	23.76886
122.24	23.76686
122.28	23.7644
122.32	23.76357
122.36	23.76654
122.4	23.76482
122.44	23.76306
122.48	23.75696
122.52	23.76215
122.56	23.76288
122.6	23.76012
122.64	23.75327
122.68	23.74957
122.72	23.75116
122.76	23.75797
122.8	23.75377
122.84	23.75432
122.88	23.75507
122.92	23.76077
122.96	23.7574
123.0	23.75443
123.04	23.75439
123.08	23.75716
123.12	23.76001
123.16	23.76154
123.2	23.75429
123.24	23.75493
123.28	23.74463
123.32	23.7478
123.36	23.74223
123.4	23.73933
123.44	23.73306
123.48	23.74173
123.52	23.74535
123.56	23.7408
123.6	23.75031
123.64	23.75185
123.68	23.7426
123.72	23.74252
123.76	23.74646
123.8	23.74818
123.84	23.75258
123.88	23.74776
123.92	23.74641
123.96	23.75189
124.0	23.75568
124.04	23.757
124.08	23.75209
124.12	23.75745
124.16	23.76114
124.2	23.75252
124.24	23.75569
124.28	23.75929
124.32	23.75827
124.36	23.75441
124.4	23.75119
124.44	23.74498
124.48	23.75021
124.52	23.74434
124.56	23.73466
124.6	23.73749
124.64	23.73096
124.68	23.72273
124.72	23.71182
124.76	23.71196
124.8	23.71251
124.84	23.68831
124.88	23.70866
124.92	23.71762
124.96	23.71634
125.0	23.71956
125.04	23.7162
125.08	23.71205
125.12	23.7124
125.16	23.71106
125.2	23.70367
125.24	23.70293
125.28	23.69647
125.32	23.70222
125.36	23.70468
125.4	23.70818
125.44	23.7137
125.48	23.72688
125.52	23.73216
125.56	23.7225
125.6	23.72832
125.64	23.72656
125.68	23.73074
125.72	23.72633
125.76	23.72951
125.8	23.72685
125.84	23.72432
125.88	23.73105
125.92	23.71817
125.96	23.71561
126.0	23.71336
126.04	23.71501
126.08	23.71768
126.12	23.71545
126.16	23.71585
126.2	23.71298
126.24	23.70731
126.28	23.71138
126.32	23.7195
126.36	23.71632
126.4	23.74626
126.44	23.72966
126.48	23.73419
126.52	23.696
126.56	23.68414
126.6	23.68889
126.64	23.71124
126.68	23.74487
126.72	23.71291
126.76	23.73068
126.8	23.73509
126.84	23.73273
126.88	23.74332
126.92	23.73753
126.96	23.73196
127.0	23.72099
127.04	23.74792
127.08	23.74028
127.12	23.72588
127.16	23.74139
127.2	23.73326
127.24	23.73958
127.28	23.74783
127.32	23.73843
127.36	23.74126
127.4	23.75127
127.44	23.74794
127.48	23.73315
127.52	23.74538
127.56	23.74838
127.6	23.73888
127.64	23.7458
127.68	23.74976
127.72	23.74107
127.76	23.73851
127.8	23.74394
127.84	23.73473
127.88	23.72844
127.92	23.73759
127.96	23.72452
128.0	23.7347
128.04	23.72972
128.08	23.72783
128.12	23.73608
128.16	23.74156
128.2	23.73778
128.24	23.73566
128.28	23.74391
128.32	23.74461
128.36	23.73936
128.4	23.74585
128.44	23.74472
128.48	23.74373
128.52	23.74451
128.56	23.74973
128.6	23.74379
128.64	23.74809
128.68	23.74757
128.72	23.74574
128.76	23.7487
128.8	23.75084
128.84	23.74174
128.88	23.74361
128.92	23.74477
128.96	23.74124
129.0	23.73972
129.04	23.73816
129.08	23.74025
129.12	23.73621
129.16	23.74524
129.2	23.7439
129.24	23.74472
129.28	23.75095
129.32	23.75499
129.36	23.76418
129.4	23.78056
129.44	23.77728
129.48	23.77556
129.52	23.77415
129.56	23.76927
129.6	23.75667
129.64	23.74635
129.68	23.74416
129.72	23.74216
129.76	23.72804
129.8	23.70927
129.84	23.68291
129.88	23.67607
129.92	23.68661
129.96	23.6879
130.0	23.69923
130.04	23.71011
130.08	23.70296
130.12	23.70187
130.16	23.71501
130.2	23.7195
130.24	23.72058
130.28	23.7198
130.32	23.72476
130.36	23.73013
130.4	23.74525
130.44	23.73991
130.48	23.74568
130.52	23.74178
130.56	23.73677
130.6	23.73972
130.64	23.73627
130.68	23.72815
130.72	23.71121
130.76	23.73676
130.8	23.75441
130.84	23.75569
130.88	23.75844
130.92	23.76004
130.96	23.76649
131.0	23.7767
131.04	23.78391
131.08	23.77939
131.12	23.77815
131.16	23.75821
131.2	23.75159
131.24	23.73648
131.28	23.73129
131.32	23.73634
131.36	23.73811
131.4	23.74364
131.44	23.73796
131.48	23.73343
131.52	23.73569
131.56	23.73553
131.6	23.72809
131.64	23.72969
131.68	23.73708
131.72	23.74973
131.76	23.73936
131.8	23.71187
131.84	23.72415
131.88	23.74153
131.92	23.75307
131.96	23.75398
132.0	23.74608
132.04	23.75102
132.08	23.76639
132.12	23.73561
132.16	23.74255
132.2	23.76266
132.24	23.76167
132.28	23.7515
132.32	23.75212
132.36	23.75963
132.4	23.75899
132.44	23.76537
132.48	23.76833
132.52	23.77318
132.56	23.76556
132.6	23.77255
132.64	23.76903
132.68	23.73322
132.72	23.75426
132.76	23.7793
132.8	23.77893
132.84	23.74339
132.88	23.74046
132.92	23.74982
132.96	23.7314
133.0	23.74805
133.04	23.71353
133.08	23.73761
133.12	23.74564
133.16	23.77614
133.2	23.76326
133.24	23.79538
133.28	23.77795
133.32	23.76189
133.36	23.78149
133.4	23.78093
133.44	23.77577
133.48	23.76024
133.52	23.75272
133.56	23.76056
133.6	23.78067
133.64	23.76425
133.68	23.7887
133.72	23.78304
133.76	23.77449
133.8	23.76994
133.84	23.77913
133.88	23.76408
133.92	23.78064
133.96	23.78128
134.0	23.76981
134.04	23.77075
134.08	23.76422
134.12	23.74838
134.16	23.79082
134.2	23.75414
134.24	23.75305
134.28	23.76854
134.32	23.77118
134.36	23.76605
134.4	23.77509
134.44	23.75598
134.48	23.75397
134.52	23.76945
134.56	23.78001
134.6	23.77669
134.64	23.77818
134.68	23.78577
134.72	23.79042
134.76	23.77408
134.8	23.77386
134.84	23.77409
134.88	23.76443
134.92	23.76862
134.96	23.76852
135.0	23.74544
135.04	23.7561
135.08	23.77812
135.12	23.78754
135.16	23.79605
135.2	23.78413
135.24	23.7919
135.28	23.78246
135.32	23.78117
135.36	23.77078
135.4	23.76614
135.44	23.76668
135.48	23.77293
135.52	23.7742
135.56	23.78149
135.6	23.7849
135.64	23.77945
135.68	23.76839
135.72	23.77092
135.76	23.78052
135.8	23.78006
135.84	23.7793
135.88	23.78059
135.92	23.78172
135.96	23.77908
136.0	23.78186
136.04	23.79219
136.08	23.78889
136.12	23.79478
136.16	23.79048
136.2	23.78726
136.24	23.78865
136.28	23.78493
136.32	23.78258
136.36	23.78404
136.4	23.7843
136.44	23.78955
136.48	23.78487
136.52	23.78734
136.56	23.79622
136.6	23.80469
136.64	23.80394
136.68	23.82367
136.72	23.82942
136.76	23.83937
136.8	23.83795
136.84	23.85159
136.88	23.87025
136.92	23.86562
136.96	23.87166
137.0	23.8815
137.04	23.89857
137.08	23.91605
137.12	23.91188
137.16	23.91211
137.2	23.90254
137.24	23.88824
137.28	23.87695
137.32	23.85632
137.36	23.82179
137.4	23.82292
137.44	23.78944
137.48	23.78119
137.52	23.78456
137.56	23.79114
137.6	23.80917
137.64	23.81506
137.68	23.80511
137.72	23.78079
137.76	23.77155
137.8	23.77451
137.84	23.78973
137.88	23.80933
137.92	23.79956
137.96	23.80238
138.0	23.80161
138.04	23.81314
138.08	23.8089
138.12	23.81224
138.16	23.81889
138.2	23.8063
138.24	23.80809
138.28	23.80531
138.32	23.80008
138.36	23.79337
138.4	23.7859
138.44	23.78217
138.48	23.77188
138.52	23.78017
138.56	23.79874
138.6	23.79832
138.64	23.80302
138.68	23.7981
138.72	23.79895
138.76	23.81322
138.8	23.81302
138.84	23.81322
138.88	23.81529
138.92	23.80951
138.96	23.80127
139.0	23.80685
139.04	23.7999
139.08	23.78947
139.12	23.78851
139.16	23.80199
139.2	23.79269
139.24	23.78934
139.28	23.79753
139.32	23.80347
139.36	23.80612
139.4	23.81459
139.44	23.82358
139.48	23.82285
139.52	23.8223
139.56	23.81564
139.6	23.8049
139.64	23.81207
139.68	23.80417
139.72	23.80748
139.76	23.81476
139.8	23.81349
139.84	23.81042
139.88	23.80191
139.92	23.79686
139.96	23.80418
140.0	23.81152
140.04	23.81694
140.08	23.8145
140.12	23.81058
140.16	23.8174
140.2	23.81892
140.24	23.81694
140.28	23.81679
140.32	23.80994
140.36	23.80847
140.4	23.80768
140.44	23.80656
140.48	23.80632
140.52	23.808
140.56	23.8024
140.6	23.80647
140.64	23.80605
140.68	23.81085
140.72	23.81721
140.76	23.81953
140.8	23.82207
140.84	23.82527
140.88	23.8208
140.92	23.8196
140.96	23.81641
141.0	23.81371
141.04	23.81966
141.08	23.81419
141.12	23.81035
141.16	23.81679
141.2	23.81071
141.24	23.81194
141.28	23.81073
141.32	23.81296
141.36	23.81557
141.4	23.81256
141.44	23.81422
141.48	23.81467
141.52	23.81622
141.56	23.82228
141.6	23.81773
141.64	23.81969
141.68	23.8264
141.72	23.82585
141.76	23.8286
141.8	23.83302
141.84	23.83208
141.88	23.83072
141.92	23.83218
141.96	23.82718
142.0	23.82379
142.04	23.82025
142.08	23.8149
142.12	23.81294
142.16	23.80534
142.2	23.80214
142.24	23.80206
142.28	23.80351
142.32	23.80754
142.36	23.80937
142.4	23.80846
142.44	23.80763
142.48	23.80257
142.52	23.80965
142.56	23.80534
142.6	23.81126
142.64	23.81213
142.68	23.80496
142.72	23.80617
142.76	23.80583
142.8	23.80403
142.84	23.80971
142.88	23.80681
142.92	23.80363
142.96	23.80016
143.0	23.79173
143.04	23.78784
143.08	23.77852
143.12	23.77205
143.16	23.77667
143.2	23.78217
143.24	23.78819
143.28	23.79897
143.32	23.79993
143.36	23.80313
143.4	23.8116
143.44	23.81464
143.48	23.82338
143.52	23.82256
143.56	23.81746
143.6	23.81062
143.64	23.80898
143.68	23.79951
143.72	23.80452
143.76	23.80862
143.8	23.80826
143.84	23.80669
143.88	23.8073
143.92	23.81181
143.96	23.80789
144.0	23.8141
144.04	23.81876
144.08	23.81941
144.12	23.82137
144.16	23.81328
144.2	23.80563
144.24	23.80461
144.28	23.80489
144.32	23.81157
144.36	23.81322
144.4	23.80884
144.44	23.8134
144.48	23.81511
144.52	23.8111
144.56	23.80873
144.6	23.80765
144.64	23.80797
144.68	23.80675
144.72	23.80936
144.76	23.81093
144.8	23.80464
144.84	23.81166
144.88	23.81177
144.92	23.81247
144.96	23.8187
145.0	23.8163
145.04	23.8111
145.08	23.80962
145.12	23.80411
145.16	23.80933
145.2	23.81013
145.24	23.80106
145.28	23.80774
145.32	23.80147
145.36	23.80066
145.4	23.80283
145.44	23.80852
145.48	23.81561
145.52	23.82077
145.56	23.81883
145.6	23.81798
145.64	23.82118
145.68	23.8168
145.72	23.81381
145.76	23.81055
145.8	23.80321
145.84	23.80206
145.88	23.80052
145.92	23.79776
145.96	23.79552
146.0	23.79784
146.04	23.80069
146.08	23.79762
146.12	23.79898
146.16	23.79562
146.2	23.79593
146.24	23.80153
146.28	23.7993
146.32	23.79895
146.36	23.80031
146.4	23.79208
146.44	23.79086
146.48	23.79112
146.52	23.79161
146.56	23.80019
146.6	23.79568
146.64	23.79684
146.68	23.80217
146.72	23.8015
146.76	23.80147
146.8	23.80515
146.84	23.80705
146.88	23.80826
146.92	23.81326
146.96	23.80968
147.0	23.8076
147.04	23.80583
147.08	23.80846
147.12	23.80989
147.16	23.80962
147.2	23.81229
147.24	23.80794
147.28	23.8
147.32	23.80568
147.36	23.80171
147.4	23.80103
147.44	23.80148
147.48	23.8053
147.52	23.80861
147.56	23.81056
147.6	23.80876
147.64	23.80876
147.68	23.80717
147.72	23.81302
147.76	23.80959
147.8	23.81238
147.84	23.81464
147.88	23.80791
147.92	23.80756
147.96	23.80907
148.0	23.80089
148.04	23.80779
148.08	23.80928
148.12	23.80084
148.16	23.80449
148.2	23.79724
148.24	23.7886
148.28	23.79742
148.32	23.78558
148.36	23.79141
148.4	23.79311
148.44	23.79642
148.48	23.80234
148.52	23.8026
148.56	23.80301
148.6	23.80061
148.64	23.80295
148.68	23.80447
148.72	23.80602
148.76	23.8013
148.8	23.80566
148.84	23.80043
148.88	23.79794
148.92	23.80133
148.96	23.79892
149.0	23.79614
149.04	23.80443
149.08	23.79872
149.12	23.79733
149.16	23.80247
149.2	23.80162
149.24	23.79936
149.28	23.79404
149.32	23.80081
149.36	23.7966
149.4	23.79543
149.44	23.79747
149.48	23.7921
149.52	23.79312
149.56	23.79407
149.6	23.78932
149.64	23.79349
149.68	23.79269
149.72	23.79535
149.76	23.79414
149.8	23.79163
149.84	23.79422
149.88	23.79071
149.92	23.7883
149.96	23.79608
150.0	23.79247
150.04	23.79475
150.08	23.79433
150.12	23.79852
150.16	23.80119
150.2	23.80547
150.24	23.80624
150.28	23.80344
150.32	23.80472
150.36	23.80228
150.4	23.80214
150.44	23.79924
150.48	23.79913
150.52	23.80254
150.56	23.80026
150.6	23.80688
150.64	23.80156
150.68	23.80141
150.72	23.80255
150.76	23.79985
150.8	23.80257
150.84	23.81007
150.88	23.80901
150.92	23.81328
150.96	23.81349
151.0	23.80681
151.04	23.80917
151.08	23.80661
151.12	23.80719
151.16	23.80803
151.2	23.80647
151.24	23.80267
151.28	23.80147
151.32	23.80057
151.36	23.79939
151.4	23.80064
151.44	23.80013
151.48	23.80199
151.52	23.79385
151.56	23.80402
151.6	23.79918
151.64	23.79605
151.68	23.79919
151.72	23.79507
151.76	23.79445
151.8	23.79825
151.84	23.79425
151.88	23.7964
151.92	23.79991
151.96	23.79813
152.0	23.7959
152.04	23.7963
152.08	23.79065
152.12	23.79071
152.16	23.79173
152.2	23.79008
152.24	23.79588
152.28	23.79016
152.32	23.79181
152.36	23.78764
152.4	23.78493
152.44	23.79086
152.48	23.78862
152.52	23.79163
152.56	23.79109
152.6	23.78796
152.64	23.7868
152.68	23.78285
152.72	23.78572
152.76	23.78757
152.8	23.78903
152.84	23.78934
152.88	23.78316
152.92	23.78708
152.96	23.78683
153.0	23.78798
153.04	23.79399
153.08	23.79224
153.12	23.79286
153.16	23.78976
153.2	23.78879
153.24	23.79167
153.28	23.79529
153.32	23.79434
153.36	23.79411
153.4	23.79695
153.44	23.79204
153.48	23.79135
153.52	23.79416
153.56	23.79175
153.6	23.79256
153.64	23.78674
153.68	23.78868
153.72	23.79115
153.76	23.78923
153.8	23.78943
153.84	23.78708
153.88	23.78836
153.92	23.79848
153.96	23.79787
154.0	23.79384
154.04	23.79768
154.08	23.78888
154.12	23.7948
154.16	23.79576
154.2	23.78868
154.24	23.7934
154.28	23.78867
154.32	23.78963
154.36	23.79364
154.4	23.78654
154.44	23.79126
154.48	23.79105
154.52	23.78424
154.56	23.78706
154.6	23.78923
154.64	23.79008
154.68	23.78497
154.72	23.78696
154.76	23.78651
154.8	23.78841
154.84	23.7811
154.88	23.77731
154.92	23.77339
154.96	23.77861
155.0	23.79271
155.04	23.79485
155.08	23.79114
155.12	23.79417
155.16	23.79001
155.2	23.78706
155.24	23.78419
155.28	23.78325
155.32	23.7838
155.36	23.78778
155.4	23.79704
155.44	23.79311
155.48	23.79936
155.52	23.80054
155.56	23.79634
155.6	23.79886
155.64	23.79828
155.68	23.79172
155.72	23.79829
155.76	23.79697
155.8	23.79308
155.84	23.79994
155.88	23.79846
155.92	23.7971
155.96	23.79721
156.0	23.79639
156.04	23.79372
156.08	23.7935
156.12	23.79599
156.16	23.79178
156.2	23.79333
156.24	23.79208
156.28	23.78917
156.32	23.78976
156.36	23.78883
156.4	23.78963
156.44	23.7897
156.48	23.79008
156.52	23.78406
156.56	23.78061
156.6	23.76714
156.64	23.75528
156.68	23.7435
156.72	23.74593
156.76	23.74777
156.8	23.75436
156.84	23.76105
156.88	23.76486
156.92	23.77087
156.96	23.77077
157.0	23.77101
157.04	23.75772
157.08	23.74461
157.12	23.74695
157.16	23.75063
157.2	23.75119
157.24	23.7597
157.28	23.76498
157.32	23.77104
157.36	23.76649
157.4	23.77426
157.44	23.77666
157.48	23.77678
157.52	23.78505
157.56	23.78864
157.6	23.79439
157.64	23.80408
157.68	23.80357
157.72	23.80536
157.76	23.80569
157.8	23.79611
157.84	23.79535
157.88	23.79756
157.92	23.78595
157.96	23.79005
158.0	23.78615
158.04	23.7774
158.08	23.77225
158.12	23.76619
158.16	23.76091
158.2	23.76051
158.24	23.76157
158.28	23.77065
158.32	23.77631
158.36	23.77667
158.4	23.7751
158.44	23.77208
158.48	23.77179
158.52	23.7693
158.56	23.76857
158.6	23.77374
158.64	23.77103
158.68	23.76295
158.72	23.75609
158.76	23.75058
158.8	23.75668
158.84	23.76694
158.88	23.77097
158.92	23.77962
158.96	23.7722
159.0	23.76836
159.04	23.76466
159.08	23.75594
159.12	23.75345
159.16	23.75063
159.2	23.73801
159.24	23.73535
159.28	23.72404
159.32	23.71741
159.36	23.69223
159.4	23.6851
159.44	23.7144
159.48	23.74725
159.52	23.75346
159.56	23.74792
159.6	23.73698
159.64	23.73566
159.68	23.73401
159.72	23.73624
159.76	23.72682
159.8	23.73729
159.84	23.73776
159.88	23.74249
159.92	23.75146
159.96	23.75894
160.0	23.76572
160.04	23.7576
160.08	23.75311
160.12	23.75073
160.16	23.74657
160.2	23.75175
160.24	23.74843
160.28	23.74492
160.32	23.73787
160.36	23.72649
160.4	23.73241
160.44	23.73546
160.48	23.74034
160.52	23.74791
160.56	23.75052
160.6	23.76718
160.64	23.78162
160.68	23.79222
160.72	23.79008
160.76	23.78415
160.8	23.78172
160.84	23.78241
160.88	23.77936
160.92	23.77795
160.96	23.78262
161.0	23.78026
161.04	23.77345
161.08	23.77299
161.12	23.77122
161.16	23.75903
161.2	23.75217
161.24	23.74493
161.28	23.74092
161.32	23.74844
161.36	23.75392
161.4	23.76083
161.44	23.76746
161.48	23.77272
161.52	23.76782
161.56	23.76677
161.6	23.77127
161.64	23.76465
161.68	23.75957
161.72	23.76628
161.76	23.76068
161.8	23.75839
161.84	23.75441
161.88	23.75958
161.92	23.76019
161.96	23.75592
162.0	23.7605
162.04	23.76204
162.08	23.76424
162.12	23.76694
162.16	23.76315
162.2	23.7706
162.24	23.77312
162.28	23.76672
162.32	23.76399
162.36	23.76224
162.4	23.7653
162.44	23.77168
162.48	23.77496
162.52	23.77759
162.56	23.7784
162.6	23.77873
162.64	23.77432
162.68	23.7702
162.72	23.76125
162.76	23.76477
162.8	23.76237
162.84	23.76508
162.88	23.76591
162.92	23.76347
162.96	23.75937
163.0	23.76047
163.04	23.7601
163.08	23.76668
163.12	23.77003
163.16	23.77005
163.2	23.77579
163.24	23.77481
163.28	23.77014
163.32	23.77574
163.36	23.76843
163.4	23.76793
163.44	23.76929
163.48	23.7686
163.52	23.77321
163.56	23.77551
163.6	23.77231
163.64	23.77203
163.68	23.76889
163.72	23.76788
163.76	23.76498
163.8	23.76102
163.84	23.76288
163.88	23.76376
163.92	23.76711
163.96	23.7632
164.0	23.76015
164.04	23.75911
164.08	23.75342
164.12	23.75447
164.16	23.75755
164.2	23.75578
164.24	23.75809
164.28	23.75363
164.32	23.75389
164.36	23.76816
164.4	23.76846
164.44	23.7776
164.48	23.78114
164.52	23.78003
164.56	23.7773
164.6	23.77852
164.64	23.77499
164.68	23.77487
164.72	23.77766
164.76	23.77165
164.8	23.77202
164.84	23.76775
164.88	23.76559
164.92	23.7708
164.96	23.76869
165.0	23.77002
165.04	23.76382
165.08	23.76524
165.12	23.76596
165.16	23.7607
165.2	23.76604
165.24	23.76524
165.28	23.76221
165.32	23.76414
165.36	23.7572
165.4	23.75323
165.44	23.75708
165.48	23.75439
165.52	23.75798
165.56	23.7597
165.6	23.75496
165.64	23.765
165.68	23.76102
165.72	23.75981
165.76	23.76743
165.8	23.76607
165.84	23.76721
165.88	23.76668
165.92	23.76294
165.96	23.76704
166.0	23.76495
166.04	23.76305
166.08	23.76987
166.12	23.76587
166.16	23.76517
166.2	23.76634
166.24	23.76343
166.28	23.76534
166.32	23.76833
166.36	23.7635
166.4	23.76776
166.44	23.76743
166.48	23.77347
166.52	23.76668
166.56	23.76761
166.6	23.76497
166.64	23.76198
166.68	23.76233
166.72	23.76448
166.76	23.75722
166.8	23.75887
166.84	23.75899
166.88	23.76027
166.92	23.76392
166.96	23.76588
167.0	23.76649
167.04	23.76486
167.08	23.76454
167.12	23.76509
167.16	23.76392
167.2	23.76009
167.24	23.76227
167.28	23.75836
167.32	23.76387
167.36	23.76802
167.4	23.76811
167.44	23.76889
167.48	23.7648
167.52	23.76324
167.56	23.76173
167.6	23.76343
167.64	23.76421
167.68	23.76468
167.72	23.76105
167.76	23.7579
167.8	23.75839
167.84	23.75273
167.88	23.75815
167.92	23.75822
167.96	23.76033
168.0	23.77119
168.04	23.76906
168.08	23.7704
168.12	23.77055
168.16	23.7637
168.2	23.75935
168.24	23.76427
168.28	23.76166
168.32	23.76019
168.36	23.76111
168.4	23.75824
168.44	23.75578
168.48	23.75121
168.52	23.75264
168.56	23.74918
168.6	23.74977
168.64	23.75302
168.68	23.75069
168.72	23.75243
168.76	23.75385
168.8	23.75562
168.84	23.75804
168.88	23.7621
168.92	23.76352
168.96	23.76329
169.0	23.7659
169.04	23.76369
169.08	23.76463
169.12	23.77029
169.16	23.77295
169.2	23.77269
169.24	23.77179
169.28	23.7688
169.32	23.76535
169.36	23.76764
169.4	23.76773
169.44	23.76595
169.48	23.77287
169.52	23.77208
169.56	23.76845
169.6	23.77516
169.64	23.77078
169.68	23.77222
169.72	23.77393
169.76	23.76831
169.8	23.76549
169.84	23.76039
169.88	23.75967
169.92	23.75989
169.96	23.75749
170.0	23.75426
170.04	23.76065
170.08	23.75465
170.12	23.75996
170.16	23.75854
170.2	23.75758
170.24	23.75983
170.28	23.75627
170.32	23.75345
170.36	23.7477
170.4	23.74399
170.44	23.74112
170.48	23.735
170.52	23.73541
170.56	23.7417
170.6	23.74411
170.64	23.74612
170.68	23.74782
170.72	23.74797
170.76	23.74974
170.8	23.74287
170.84	23.75618
170.88	23.75919
170.92	23.75401
170.96	23.75322
171.0	23.75278
171.04	23.75034
171.08	23.74942
171.12	23.7471
171.16	23.75005
171.2	23.7563
171.24	23.75706
171.28	23.76114
171.32	23.76501
171.36	23.7589
171.4	23.75925
171.44	23.75818
171.48	23.75758
171.52	23.74655
171.56	23.74129
171.6	23.74124
171.64	23.73961
171.68	23.74956
171.72	23.74641
171.76	23.74277
171.8	23.74393
171.84	23.7509
171.88	23.74823
171.92	23.74258
171.96	23.73083
172.0	23.71828
172.04	23.71873
172.08	23.72565
172.12	23.73396
172.16	23.73322
172.2	23.72375
172.24	23.72476
172.28	23.72665
172.32	23.72926
172.36	23.73526
172.4	23.74182
172.44	23.74779
172.48	23.74907
172.52	23.74849
172.56	23.75696
172.6	23.75862
172.64	23.75977
172.68	23.76881
172.72	23.76973
172.76	23.77177
172.8	23.77202
172.84	23.76494
172.88	23.76634
172.92	23.76923
172.96	23.76643
173.0	23.76901
173.04	23.76723
173.08	23.7646
173.12	23.76328
173.16	23.75813
173.2	23.76524
173.24	23.76363
173.28	23.76138
173.32	23.76514
173.36	23.75769
173.4	23.75714
173.44	23.75684
173.48	23.75404
173.52	23.75578
173.56	23.76195
173.6	23.76265
173.64	23.76237
173.68	23.76379
173.72	23.75948
173.76	23.757
173.8	23.75658
173.84	23.75822
173.88	23.76251
173.92	23.76376
173.96	23.76668
174.0	23.76984
174.04	23.76628
174.08	23.76637
174.12	23.76314
174.16	23.76289
174.2	23.76244
174.24	23.7635
174.28	23.76347
174.32	23.76421
174.36	23.76263
174.4	23.76476
174.44	23.75583
174.48	23.75891
174.52	23.76138
174.56	23.75967
174.6	23.76988
174.64	23.76682
174.68	23.76988
174.72	23.7742
174.76	23.77211
174.8	23.77486
174.84	23.77078
174.88	23.77133
174.92	23.77316
174.96	23.76933
175.0	23.76985
175.04	23.76837
175.08	23.77094
175.12	23.77321
175.16	23.77502
175.2	23.78018
175.24	23.78281
175.28	23.78149
175.32	23.77971
175.36	23.77838
175.4	23.78072
175.44	23.7767
175.48	23.78014
175.52	23.78392
175.56	23.78091
175.6	23.77687
175.64	23.77194
175.68	23.76962
175.72	23.76411
175.76	23.76688
175.8	23.76047
175.84	23.75423
175.88	23.75471
175.92	23.75079
175.96	23.74155
176.0	23.74452
176.04	23.73782
176.08	23.74084
176.12	23.73497
176.16	23.74072
176.2	23.74471
176.24	23.74153
176.28	23.7498
176.32	23.75885
176.36	23.76109
176.4	23.76375
176.44	23.76309
176.48	23.76671
176.52	23.76373
176.56	23.76067
176.6	23.76541
176.64	23.76292
176.68	23.75853
176.72	23.76271
176.76	23.75894
176.8	23.75731
176.84	23.76157
176.88	23.75665
176.92	23.75722
176.96	23.76131
177.0	23.76668
177.04	23.76845
177.08	23.77271
177.12	23.77208
177.16	23.77141
177.2	23.7722
177.24	23.76984
177.28	23.76826
177.32	23.76143
177.36	23.76082
177.4	23.761
177.44	23.76219
177.48	23.7646
177.52	23.76306
177.56	23.76059
177.6	23.76482
177.64	23.76085
177.68	23.76076
177.72	23.75813
177.76	23.75673
177.8	23.75671
177.84	23.75626
177.88	23.76291
177.92	23.75926
177.96	23.75699
178.0	23.76115
178.04	23.7569
178.08	23.75964
178.12	23.76361
178.16	23.76077
178.2	23.76595
178.24	23.76454
178.28	23.76517
178.32	23.76955
178.36	23.76593
178.4	23.76459
178.44	23.7643
178.48	23.76292
178.52	23.76328
178.56	23.76651
178.6	23.76781
178.64	23.76524
178.68	23.76659
178.72	23.7693
178.76	23.76863
178.8	23.76099
178.84	23.76062
178.88	23.76572
178.92	23.76344
178.96	23.76741
179.0	23.76605
179.04	23.76222
179.08	23.76068
179.12	23.75508
179.16	23.76013
179.2	23.75073
179.24	23.74849
179.28	23.75133
179.32	23.74258
179.36	23.74178
179.4	23.74359
179.44	23.7383
179.48	23.74301
179.52	23.73917
179.56	23.73784
179.6	23.73689
179.64	23.73029
179.68	23.73415
179.72	23.73587
179.76	23.73344
179.8	23.73627
179.84	23.73549
179.88	23.73186
179.92	23.72841
179.96	23.72626
180.0	23.72589
180.04	23.72644
180.08	23.72516
180.12	23.73268
180.16	23.73906
180.2	23.73535
180.24	23.73883
180.28	23.73798
180.32	23.73676
180.36	23.74019
180.4	23.74332
180.44	23.74504
180.48	23.74866
180.52	23.74962
180.56	23.7513
180.6	23.75145
180.64	23.75185
180.68	23.75267
180.72	23.74762
180.76	23.74956
180.8	23.7527
180.84	23.75162
180.88	23.75365
180.92	23.74974
180.96	23.74767
181.0	23.75374
181.04	23.7493
181.08	23.75105
181.12	23.74971
181.16	23.75298
181.2	23.75726
181.24	23.75998
181.28	23.7657
181.32	23.75725
181.36	23.75014
181.4	23.74771
181.44	23.73878
181.48	23.73035
181.52	23.72556
181.56	23.71941
181.6	23.71899
181.64	23.72148
181.68	23.7254
181.72	23.72845
181.76	23.72879
181.8	23.73402
181.84	23.74133
181.88	23.74196
181.92	23.74147
181.96	23.74539
182.0	23.74396
182.04	23.74571
182.08	23.74623
182.12	23.74207
182.16	23.74149
182.2	23.74271
182.24	23.73744
182.28	23.74168
182.32	23.74194
182.36	23.74077
182.4	23.74112
182.44	23.73604
182.48	23.73595
182.52	23.73584
182.56	23.73779
182.6	23.74666
182.64	23.75154
182.68	23.75441
182.72	23.75407
182.76	23.75693
182.8	23.76042
182.84	23.75734
182.88	23.75861
182.92	23.7635
182.96	23.76389
183.0	23.76849
183.04	23.77049
183.08	23.77386
183.12	23.776
183.16	23.77481
183.2	23.77948
183.24	23.77736
183.28	23.77782
183.32	23.78004
183.36	23.7776
183.4	23.77452
183.44	23.77486
183.48	23.77588
183.52	23.77684
183.56	23.7742
183.6	23.77431
183.64	23.77705
183.68	23.7774
183.72	23.77789
183.76	23.77324
183.8	23.77737
183.84	23.77559
183.88	23.77763
183.92	23.77367
183.96	23.77818
184.0	23.7641
184.04	23.76845
184.08	23.771
184.12	23.75882
184.16	23.76544
184.2	23.77464
184.24	23.77457
184.28	23.77425
184.32	23.77065
184.36	23.77383
184.4	23.77643
184.44	23.77277
184.48	23.7758
184.52	23.78386
184.56	23.78107
184.6	23.77948
184.64	23.76642
184.68	23.7608
184.72	23.77362
184.76	23.77646
184.8	23.77365
184.84	23.77411
184.88	23.77187
184.92	23.77985
184.96	23.77678
185.0	23.77554
185.04	23.77464
185.08	23.77979
185.12	23.78212
185.16	23.7874
185.2	23.78726
185.24	23.79308
185.28	23.79626
185.32	23.79422
185.36	23.79218
185.4	23.78522
185.44	23.77463
185.48	23.77412
185.52	23.76997
185.56	23.76752
185.6	23.7507
185.64	23.74635
185.68	23.74612
185.72	23.73958
185.76	23.74663
185.8	23.75343
185.84	23.75397
185.88	23.75763
185.92	23.75681
185.96	23.75705
186.0	23.76556
186.04	23.76614
186.08	23.77087
186.12	23.77533
186.16	23.77669
186.2	23.77702
186.24	23.76834
186.28	23.76515
186.32	23.7657
186.36	23.75598
186.4	23.75099
186.44	23.74623
186.48	23.75012
186.52	23.74286
186.56	23.73946
186.6	23.74147
186.64	23.74074
186.68	23.7381
186.72	23.73563
186.76	23.73167
186.8	23.73669
186.84	23.74011
186.88	23.73785
186.92	23.73967
186.96	23.73622
187.0	23.72905
187.04	23.73103
187.08	23.7271
187.12	23.72946
187.16	23.73531
187.2	23.73979
187.24	23.74582
187.28	23.7509
187.32	23.7471
187.36	23.74944
187.4	23.75027
187.44	23.74612
187.48	23.74884
187.52	23.74625
187.56	23.74242
187.6	23.73833
187.64	23.74759
187.68	23.75455
187.72	23.75146
187.76	23.75226
187.8	23.757
187.84	23.75447
187.88	23.75496
187.92	23.75574
187.96	23.75136
188.0	23.75362
188.04	23.75372
188.08	23.75443
188.12	23.74968
188.16	23.74489
188.2	23.74147
188.24	23.7368
188.28	23.72975
188.32	23.73135
188.36	23.72815
188.4	23.72543
188.44	23.72542
188.48	23.72552
188.52	23.72459
188.56	23.72548
188.6	23.72209
188.64	23.72681
188.68	23.72836
188.72	23.72815
188.76	23.73137
188.8	23.73439
188.84	23.73744
188.88	23.74269
188.92	23.74149
188.96	23.7458
189.0	23.7462
189.04	23.74005
189.08	23.74129
189.12	23.7428
189.16	23.73953
189.2	23.74626
189.24	23.74258
189.28	23.74545
189.32	23.74112
189.36	23.74747
189.4	23.74576
189.44	23.74167
189.48	23.74426
189.52	23.74307
189.56	23.74541
189.6	23.74699
189.64	23.74506
189.68	23.74127
189.72	23.74524
189.76	23.74133
189.8	23.74318
189.84	23.73921
189.88	23.74174
189.92	23.74425
189.96	23.7485
190.0	23.75043
190.04	23.75098
190.08	23.74684
190.12	23.74586
190.16	23.74603
190.2	23.74001
190.24	23.7384
190.28	23.73711
190.32	23.7365
190.36	23.73985
190.4	23.73734
190.44	23.73657
190.48	23.73418
190.52	23.7357
190.56	23.73549
190.6	23.73534
190.64	23.73053
190.68	23.73026
190.72	23.72992
190.76	23.73367
190.8	23.73584
190.84	23.73849
190.88	23.74387
190.92	23.73947
190.96	23.74443
191.0	23.74814
191.04	23.74419
191.08	23.74864
191.12	23.74954
191.16	23.75244
191.2	23.75739
191.24	23.75343
191.28	23.75204
191.32	23.75597
191.36	23.74988
191.4	23.74921
191.44	23.75021
191.48	23.74599
191.52	23.74901
191.56	23.75139
191.6	23.75275
191.64	23.75307
191.68	23.75108
191.72	23.74994
191.76	23.74748
191.8	23.74541
191.84	23.74973
191.88	23.74854
191.92	23.74773
191.96	23.74905
192.0	23.75224
192.04	23.74644
192.08	23.75331
192.12	23.74989
192.16	23.75021
192.2	23.74857
192.24	23.74445
192.28	23.74925
192.32	23.74287
192.36	23.75124
192.4	23.75119
192.44	23.7524
192.48	23.75697
192.52	23.75615
192.56	23.75816
192.6	23.75935
192.64	23.75233
192.68	23.75735
192.72	23.75385
192.76	23.75853
192.8	23.75967
192.84	23.7541
192.88	23.75717
192.92	23.76152
192.96	23.7636
193.0	23.76659
193.04	23.75841
193.08	23.75815
193.12	23.75853
193.16	23.75362
193.2	23.75243
193.24	23.75601
193.28	23.74992
193.32	23.74716
193.36	23.74527
193.4	23.74803
193.44	23.75044
193.48	23.75214
193.52	23.74638
193.56	23.74695
193.6	23.74013
193.64	23.74391
193.68	23.7417
193.72	23.73914
193.76	23.74149
193.8	23.73842
193.84	23.73842
193.88	23.74295
193.92	23.73885
193.96	23.74097
194.0	23.7439
194.04	23.73953
194.08	23.74072
194.12	23.7347
194.16	23.73378
194.2	23.73967
194.24	23.74481
194.28	23.74612
194.32	23.74229
194.36	23.74686
194.4	23.75284
194.44	23.75264
194.48	23.75397
194.52	23.75659
194.56	23.75111
194.6	23.75943
194.64	23.76105
194.68	23.75726
194.72	23.75549
194.76	23.74672
194.8	23.74817
194.84	23.75322
194.88	23.75296
194.92	23.75467
194.96	23.75502
195.0	23.75578
195.04	23.76315
195.08	23.75818
195.12	23.75761
195.16	23.75526
195.2	23.74876
195.24	23.75554
195.28	23.75322
195.32	23.74953
195.36	23.75237
195.4	23.7466
195.44	23.75244
195.48	23.74803
195.52	23.75052
195.56	23.75577
195.6	23.75404
195.64	23.75574
195.68	23.76064
195.72	23.75932
195.76	23.76019
195.8	23.76483
195.84	23.76443
195.88	23.76532
195.92	23.76123
195.96	23.76299
196.0	23.76439
196.04	23.76173
196.08	23.76587
196.12	23.76202
196.16	23.75966
196.2	23.76907
196.24	23.76784
196.28	23.76698
196.32	23.76749
196.36	23.7648
196.4	23.76064
196.44	23.75967
196.48	23.75609
196.52	23.75575
196.56	23.76019
196.6	23.75783
196.64	23.7607
196.68	23.75528
196.72	23.75925
196.76	23.75809
196.8	23.75528
196.84	23.75993
196.88	23.76225
196.92	23.76329
196.96	23.77223
197.0	23.77106
197.04	23.76971
197.08	23.77101
197.12	23.76862
197.16	23.7699
197.2	23.77292
197.24	23.77371
197.28	23.77629
197.32	23.7679
197.36	23.76848
197.4	23.77209
197.44	23.7677
197.48	23.76985
197.52	23.77132
197.56	23.76521
197.6	23.77014
197.64	23.77139
197.68	23.77226
197.72	23.7742
197.76	23.76991
197.8	23.76834
197.84	23.76576
197.88	23.76375
197.92	23.76413
197.96	23.75989
198.0	23.75932
198.04	23.76105
198.08	23.75652
198.12	23.76315
198.16	23.76311
198.2	23.76338
198.24	23.76242
198.28	23.76306
198.32	23.76395
198.36	23.76315
198.4	23.76183
198.44	23.76263
198.48	23.76038
198.52	23.7565
198.56	23.75516
198.6	23.75388
198.64	23.75514
198.68	23.75684
198.72	23.75764
198.76	23.76221
198.8	23.75761
198.84	23.75923
198.88	23.76286
198.92	23.75945
198.96	23.76108
199.0	23.7554
199.04	23.75397
199.08	23.75801
199.12	23.75487
199.16	23.75764
199.2	23.7657
199.24	23.75972
199.28	23.76346
199.32	23.76735
199.36	23.77391
199.4	23.77594
199.44	23.7748
199.48	23.77481
199.52	23.78246
199.56	23.7769
199.6	23.77795
199.64	23.77321
199.68	23.77454
199.72	23.7726
199.76	23.76837
199.8	23.76897
199.84	23.77306
199.88	23.76985
199.92	23.7692
199.96	23.76735
200.0	23.77153
200.04	23.77208
200.08	23.76634
200.12	23.76836
200.16	23.77031
200.2	23.77039
200.24	23.76509
200.28	23.7682
200.32	23.76964
200.36	23.77032
200.4	23.76865
200.44	23.76852
200.48	23.77272
200.52	23.76817
200.56	23.76843
200.6	23.76981
200.64	23.76645
200.68	23.76955
200.72	23.7643
200.76	23.76262
200.8	23.76196
200.84	23.75835
200.88	23.7618
200.92	23.75905
200.96	23.75629
201.0	23.75699
201.04	23.75819
201.08	23.75882
201.12	23.75926
201.16	23.75577
201.2	23.75439
201.24	23.75087
201.28	23.74706
201.32	23.74963
201.36	23.74608
201.4	23.74098
201.44	23.74107
201.48	23.74214
201.52	23.74228
201.56	23.74226
201.6	23.7419
201.64	23.74162
201.68	23.74249
201.72	23.74522
201.76	23.74677
201.8	23.74438
201.84	23.74751
201.88	23.74765
201.92	23.74837
201.96	23.75244
202.0	23.75046
202.04	23.75121
202.08	23.75517
202.12	23.75563
202.16	23.7599
202.2	23.75725
202.24	23.75925
202.28	23.75693
202.32	23.75182
202.36	23.75218
202.4	23.75793
202.44	23.74986
202.48	23.75352
202.52	23.75153
202.56	23.74774
202.6	23.75043
202.64	23.7494
202.68	23.75266
202.72	23.7496
202.76	23.74837
202.8	23.75211
202.84	23.74231
202.88	23.74043
202.92	23.74353
202.96	23.73688
203.0	23.7363
203.04	23.74074
203.08	23.74115
203.12	23.74733
203.16	23.74713
203.2	23.75168
203.24	23.7491
203.28	23.74963
203.32	23.7518
203.36	23.75208
203.4	23.75027
203.44	23.75278
203.48	23.75168
203.52	23.7529
203.56	23.75627
203.6	23.75308
203.64	23.75284
203.68	23.75826
203.72	23.75322
203.76	23.7561
203.8	23.75417
203.84	23.75371
203.88	23.75407
203.92	23.74881
203.96	23.75026
204.0	23.75204
204.04	23.74467
204.08	23.74956
204.12	23.7356
204.16	23.72195
204.2	23.73375
204.24	23.7394
204.28	23.74397
204.32	23.73869
204.36	23.74286
204.4	23.74202
204.44	23.74019
204.48	23.74313
204.52	23.74258
204.56	23.74182
204.6	23.74133
204.64	23.73969
204.68	23.7399
204.72	23.73402
204.76	23.73055
204.8	23.72546
204.84	23.72948
204.88	23.74359
204.92	23.74852
204.96	23.75133
205.0	23.75098
205.04	23.75705
205.08	23.75438
205.12	23.75348
205.16	23.75319
205.2	23.75339
205.24	23.75757
205.28	23.76192
205.32	23.76526
205.36	23.76958
205.4	23.76964
205.44	23.76767
205.48	23.77173
205.52	23.77168
205.56	23.7719
205.6	23.77393
205.64	23.7692
205.68	23.77303
205.72	23.7719
205.76	23.76857
205.8	23.77335
205.84	23.76883
205.88	23.76926
205.92	23.76805
205.96	23.76892
206.0	23.77
206.04	23.76364
206.08	23.76689
206.12	23.77231
206.16	23.76913
206.2	23.77299
206.24	23.76794
206.28	23.76657
206.32	23.77786
206.36	23.77437
206.4	23.77896
206.44	23.77798
206.48	23.77986
206.52	23.7834
206.56	23.78003
206.6	23.77963
206.64	23.7776
206.68	23.78291
206.72	23.7813
206.76	23.78134
206.8	23.78436
206.84	23.78183
206.88	23.7827
206.92	23.78413
206.96	23.78656
207.0	23.77905
207.04	23.77631
207.08	23.77823
207.12	23.77304
207.16	23.7729
207.2	23.7632
207.24	23.76273
207.28	23.76785
207.32	23.75743
207.36	23.76164
207.4	23.75748
207.44	23.74753
207.48	23.76334
207.52	23.76306
207.56	23.75888
207.6	23.76041
207.64	23.75722
207.68	23.76326
207.72	23.76083
207.76	23.75827
207.8	23.75861
207.84	23.75826
207.88	23.76189
207.92	23.76378
207.96	23.76262
208.0	23.76476
208.04	23.76439
208.08	23.76414
208.12	23.77194
208.16	23.77165
208.2	23.77205
208.24	23.77058
208.28	23.77005
208.32	23.77306
208.36	23.77232
208.4	23.76929
208.44	23.76994
208.48	23.77014
208.52	23.76346
208.56	23.76666
208.6	23.76582
208.64	23.76666
208.68	23.76277
208.72	23.76186
208.76	23.76445
208.8	23.76454
208.84	23.76064
208.88	23.76427
208.92	23.76251
208.96	23.76701
209.0	23.76273
209.04	23.76711
209.08	23.76662
209.12	23.76274
209.16	23.76343
209.2	23.76801
209.24	23.76501
209.28	23.76563
209.32	23.76031
209.36	23.76527
209.4	23.7668
209.44	23.76201
209.48	23.7616
209.52	23.76778
209.56	23.75922
209.6	23.76326
209.64	23.76265
209.68	23.76601
209.72	23.76665
209.76	23.76801
209.8	23.76918
209.84	23.76807
209.88	23.76743
209.92	23.76996
209.96	23.76675
210.0	23.76775
210.04	23.76488
210.08	23.76497
210.12	23.76511
210.16	23.76619
210.2	23.76881
210.24	23.76422
210.28	23.76408
210.32	23.76607
210.36	23.76634
210.4	23.76035
210.44	23.76292
210.48	23.76437
210.52	23.75531
210.56	23.75136
210.6	23.76151
210.64	23.75511
210.68	23.7558
210.72	23.75154
210.76	23.75441
210.8	23.75645
210.84	23.75166
210.88	23.75127
210.92	23.74994
210.96	23.74776
211.0	23.74861
211.04	23.74739
211.08	23.75301
211.12	23.74927
211.16	23.74677
211.2	23.75304
211.24	23.75081
211.28	23.75444
211.32	23.75208
211.36	23.74844
211.4	23.75233
211.44	23.75159
211.48	23.74913
211.52	23.75285
211.56	23.75125
211.6	23.75215
211.64	23.75188
211.68	23.74858
211.72	23.75397
211.76	23.75223
211.8	23.75504
211.84	23.75484
211.88	23.7529
211.92	23.75484
211.96	23.75381
212.0	23.75153
212.04	23.7467
212.08	23.75079
212.12	23.75113
212.16	23.74171
212.2	23.72546
212.24	23.72504
212.28	23.72778
212.32	23.72691
212.36	23.71211
212.4	23.70413
212.44	23.69919
212.48	23.71376
212.52	23.72034
212.56	23.73007
212.6	23.73109
212.64	23.73495
212.68	23.73758
212.72	23.73898
212.76	23.7403
212.8	23.74004
212.84	23.73048
212.88	23.73119
212.92	23.72263
212.96	23.71051
213.0	23.69962
213.04	23.6969
213.08	23.70732
213.12	23.71559
213.16	23.71738
213.2	23.72484
213.24	23.72572
213.28	23.7319
213.32	23.73068
213.36	23.72603
213.4	23.72571
213.44	23.72966
213.48	23.72308
213.52	23.72256
213.56	23.7207
213.6	23.71916
213.64	23.72418
213.68	23.72742
213.72	23.72441
213.76	23.72836
213.8	23.73528
213.84	23.7321
213.88	23.73445
213.92	23.73235
213.96	23.73337
214.0	23.72762
214.04	23.72513
214.08	23.72867
214.12	23.72702
214.16	23.72974
214.2	23.73245
214.24	23.73431
214.28	23.73531
214.32	23.73009
214.36	23.73364
214.4	23.73242
214.44	23.72606
214.48	23.73062
214.52	23.73055
214.56	23.73291
214.6	23.74072
214.64	23.7403
214.68	23.73715
214.72	23.73947
214.76	23.7355
214.8	23.73959
214.84	23.74104
214.88	23.74586
214.92	23.74545
214.96	23.74307
215.0	23.74142
215.04	23.74817
215.08	23.7402
215.12	23.74089
215.16	23.73763
215.2	23.73436
215.24	23.73424
215.28	23.73177
215.32	23.73434
215.36	23.74001
215.4	23.74292
215.44	23.74368
215.48	23.74004
215.52	23.73912
215.56	23.73418
215.6	23.7316
215.64	23.72498
215.68	23.72551
215.72	23.72466
215.76	23.72824
215.8	23.73125
215.84	23.72672
215.88	23.73103
215.92	23.73409
215.96	23.72838
216.0	23.73386
216.04	23.73329
216.08	23.73357
216.12	23.73129
216.16	23.73212
216.2	23.7318
216.24	23.72527
216.28	23.70769
216.32	23.72977
216.36	23.72618
216.4	23.72855
216.44	23.72542
216.48	23.72826
216.52	23.72995
216.56	23.72545
216.6	23.72833
216.64	23.72363
216.68	23.71873
216.72	23.72151
216.76	23.72679
216.8	23.72517
216.84	23.72095
216.88	23.7234
216.92	23.72256
216.96	23.72179
217.0	23.71889
217.04	23.71979
217.08	23.72127
217.12	23.71741
217.16	23.72186
217.2	23.72272
217.24	23.72284
217.28	23.72075
217.32	23.71725
217.36	23.72272
217.4	23.7256
217.44	23.71977
217.48	23.72328
217.52	23.71884
217.56	23.72124
217.6	23.72647
217.64	23.72299
217.68	23.72296
217.72	23.72511
217.76	23.72627
217.8	23.72527
217.84	23.72298
217.88	23.72311
217.92	23.72803
217.96	23.72711
218.0	23.72652
218.04	23.72844
218.08	23.7258
218.12	23.72993
218.16	23.72775
218.2	23.72867
218.24	23.73076
218.28	23.7267
218.32	23.72546
218.36	23.72794
218.4	23.72679
218.44	23.72342
218.48	23.72247
218.52	23.72238
218.56	23.72414
218.6	23.71968
218.64	23.71684
218.68	23.71925
218.72	23.72002
218.76	23.72156
218.8	23.71642
218.84	23.70091
218.88	23.72186
218.92	23.71597
218.96	23.71625
219.0	23.71967
219.04	23.714
219.08	23.71361
219.12	23.70587
219.16	23.70003
219.2	23.70288
219.24	23.70415
219.28	23.70795
219.32	23.70583
219.36	23.70499
219.4	23.70393
219.44	23.69444
219.48	23.69218
219.52	23.70288
219.56	23.70262
219.6	23.70923
219.64	23.71083
219.68	23.71312
219.72	23.71396
219.76	23.71313
219.8	23.71419
219.84	23.71234
219.88	23.71416
219.92	23.71375
219.96	23.70963
220.0	23.71307
220.04	23.71082
220.08	23.7097
220.12	23.71158
220.16	23.71236
220.2	23.71474
220.24	23.71031
220.28	23.71083
220.32	23.71353
220.36	23.71457
220.4	23.7133
220.44	23.71132
220.48	23.71313
220.52	23.70709
220.56	23.70689
220.6	23.70883
220.64	23.70361
220.68	23.70413
220.72	23.7045
220.76	23.70297
220.8	23.70879
220.84	23.70845
220.88	23.70833
220.92	23.70454
220.96	23.70502
221.0	23.70448
221.04	23.69987
221.08	23.70041
221.12	23.70102
221.16	23.69357
221.2	23.69864
221.24	23.69383
221.28	23.69464
221.32	23.69809
221.36	23.6954
221.4	23.69017
221.44	23.68678
221.48	23.68265
221.52	23.67859
221.56	23.67731
221.6	23.67496
221.64	23.66811
221.68	23.67215
221.72	23.67281
221.76	23.67809
221.8	23.67961
221.84	23.68216
221.88	23.68895
221.92	23.69057
221.96	23.6969
222.0	23.70117
222.04	23.70102
222.08	23.70238
222.12	23.69739
222.16	23.70166
222.2	23.707
222.24	23.7023
222.28	23.70845
222.32	23.70352
222.36	23.70721
222.4	23.71202
222.44	23.70876
222.48	23.71263
222.52	23.71342
222.56	23.70959
222.6	23.70992
222.64	23.70625
222.68	23.71111
222.72	23.71075
222.76	23.71167
222.8	23.71764
222.84	23.71642
222.88	23.71799
222.92	23.72366
222.96	23.72379
223.0	23.72925
223.04	23.731
223.08	23.72295
223.12	23.72075
223.16	23.71866
223.2	23.71371
223.24	23.7146
223.28	23.71509
223.32	23.71577
223.36	23.71353
223.4	23.70615
223.44	23.71049
223.48	23.71268
223.52	23.71251
223.56	23.71846
223.6	23.71265
223.64	23.71315
223.68	23.71506
223.72	23.71263
223.76	23.71645
223.8	23.71359
223.84	23.71219
223.88	23.7191
223.92	23.71349
223.96	23.7171
224.0	23.71887
224.04	23.71709
224.08	23.71498
224.12	23.71184
224.16	23.70641
224.2	23.71542
224.24	23.71034
224.28	23.71089
224.32	23.70741
224.36	23.70554
224.4	23.71167
224.44	23.7106
224.48	23.71225
224.52	23.71773
224.56	23.71581
224.6	23.71524
224.64	23.71051
224.68	23.71231
224.72	23.71353
224.76	23.71182
224.8	23.71034
224.84	23.71045
224.88	23.70984
224.92	23.71202
224.96	23.71332
225.0	23.70564
225.04	23.71021
225.08	23.70697
225.12	23.70274
225.16	23.70497
225.2	23.7025
225.24	23.70518
225.28	23.70323
225.32	23.70129
225.36	23.70569
225.4	23.70757
225.44	23.70557
225.48	23.70445
225.52	23.70226
225.56	23.70113
225.6	23.70514
225.64	23.7038
225.68	23.70354
225.72	23.69951
225.76	23.70079
225.8	23.69412
225.84	23.69936
225.88	23.701
225.92	23.70604
225.96	23.705
226.0	23.70663
226.04	23.70132
226.08	23.70267
226.12	23.70912
226.16	23.70039
226.2	23.70125
226.24	23.6992
226.28	23.70009
226.32	23.70131
226.36	23.70291
226.4	23.70273
226.44	23.70509
226.48	23.69937
226.52	23.69791
226.56	23.6924
226.6	23.68425
226.64	23.68456
226.68	23.6826
226.72	23.68066
226.76	23.68909
226.8	23.69333
226.84	23.69308
226.88	23.70221
226.92	23.70102
226.96	23.70346
227.0	23.70256
227.04	23.70135
227.08	23.70645
227.12	23.70566
227.16	23.70885
227.2	23.70715
227.24	23.70621
227.28	23.71103
227.32	23.70517
227.36	23.70766
227.4	23.71051
227.44	23.70888
227.48	23.7093
227.52	23.70561
227.56	23.70763
227.6	23.7101
227.64	23.70827
227.68	23.70876
227.72	23.71335
227.76	23.71135
227.8	23.71143
227.84	23.70964
227.88	23.7075
227.92	23.70969
227.96	23.71005
228.0	23.7083
228.04	23.70673
228.08	23.70465
228.12	23.7029
228.16	23.70215
228.2	23.69638
228.24	23.70123
228.28	23.69893
228.32	23.69478
228.36	23.69576
228.4	23.69144
228.44	23.69559
228.48	23.69681
228.52	23.69481
228.56	23.70064
228.6	23.69856
228.64	23.69478
228.68	23.70052
228.72	23.69986
228.76	23.70483
228.8	23.70027
228.84	23.69637
228.88	23.70277
228.92	23.70094
228.96	23.69647
229.0	23.70042
229.04	23.70042
229.08	23.70247
229.12	23.70236
229.16	23.70076
229.2	23.70093
229.24	23.7029
229.28	23.70529
229.32	23.70273
229.36	23.70288
229.4	23.70528
229.44	23.7034
229.48	23.70383
229.52	23.69881
229.56	23.69862
229.6	23.70128
229.64	23.69998
229.68	23.70132
229.72	23.69948
229.76	23.69714
229.8	23.69817
229.84	23.70126
229.88	23.70293
229.92	23.70146
229.96	23.70386
230.0	23.70044
230.04	23.70091
230.08	23.70326
230.12	23.70155
230.16	23.69707
230.2	23.69992
230.24	23.69675
230.28	23.70119
230.32	23.69339
230.36	23.69641
230.4	23.6989
230.44	23.69232
230.48	23.6897
230.52	23.68867
230.56	23.68932
230.6	23.68774
230.64	23.67465
230.68	23.68246
230.72	23.68939
230.76	23.69023
230.8	23.69075
230.84	23.68935
230.88	23.689
230.92	23.69736
230.96	23.69348
231.0	23.69342
231.04	23.69147
231.08	23.69034
231.12	23.69414
231.16	23.69258
231.2	23.68959
231.24	23.6899
231.28	23.69077
231.32	23.69086
231.36	23.69098
231.4	23.68874
231.44	23.68672
231.48	23.69038
231.52	23.69051
231.56	23.68884
231.6	23.68423
231.64	23.6908
231.68	23.68257
231.72	23.68263
231.76	23.69099
231.8	23.68979
231.84	23.68358
231.88	23.68971
231.92	23.68929
231.96	23.69397
232.0	23.69133
232.04	23.68913
232.08	23.68993
232.12	23.68465
232.16	23.68394
232.2	23.68779
232.24	23.68359
232.28	23.67828
232.32	23.6772
232.36	23.67915
232.4	23.67928
232.44	23.67473
232.48	23.6734
232.52	23.67513
232.56	23.66835
232.6	23.66704
232.64	23.66302
232.68	23.65771
232.72	23.65904
232.76	23.65494
232.8	23.6487
232.84	23.65198
232.88	23.6476
232.92	23.64671
232.96	23.64767
233.0	23.64885
233.04	23.65503
233.08	23.64983
233.12	23.65132
233.16	23.65872
233.2	23.657
233.24	23.65512
233.28	23.6563
233.32	23.65822
233.36	23.66367
233.4	23.66422
233.44	23.65956
233.48	23.66476
233.52	23.66306
233.56	23.66333
233.6	23.66539
233.64	23.66283
233.68	23.66486
233.72	23.65877
233.76	23.66153
233.8	23.66203
233.84	23.66052
233.88	23.66255
233.92	23.66135
233.96	23.66281
234.0	23.66548
234.04	23.66284
234.08	23.66316
234.12	23.66873
234.16	23.66531
234.2	23.66422
234.24	23.66281
234.28	23.66248
234.32	23.66151
234.36	23.66486
234.4	23.6684
234.44	23.67229
234.48	23.66757
234.52	23.6701
234.56	23.67181
234.6	23.67142
234.64	23.67226
234.68	23.66727
234.72	23.66721
234.76	23.67331
234.8	23.67314
234.84	23.66736
234.88	23.67181
234.92	23.66917
234.96	23.67122
235.0	23.67053
235.04	23.66527
235.08	23.67029
235.12	23.66826
235.16	23.67021
235.2	23.66603
235.24	23.66463
235.28	23.66856
235.32	23.66795
235.36	23.66666
235.4	23.66319
235.44	23.66396
235.48	23.66893
235.52	23.66661
235.56	23.66144
235.6	23.66524
235.64	23.6684
235.68	23.67053
235.72	23.6723
235.76	23.66391
235.8	23.66837
235.84	23.66881
235.88	23.66998
235.92	23.66852
235.96	23.67126
236.0	23.67039
236.04	23.66936
236.08	23.66815
236.12	23.66951
236.16	23.67183
236.2	23.67171
236.24	23.67418
236.28	23.67056
236.32	23.66501
236.36	23.66977
236.4	23.67006
236.44	23.66562
236.48	23.67203
236.52	23.66847
236.56	23.6711
236.6	23.66699
236.64	23.66592
236.68	23.67104
236.72	23.66721
236.76	23.66942
236.8	23.67116
236.84	23.66875
236.88	23.67093
236.92	23.6675
236.96	23.66434
237.0	23.67358
237.04	23.66968
237.08	23.66978
237.12	23.66641
237.16	23.66849
237.2	23.67038
237.24	23.6651
237.28	23.66585
237.32	23.66782
237.36	23.66933
237.4	23.66902
237.44	23.66682
237.48	23.66653
237.52	23.66795
237.56	23.66579
237.6	23.66727
237.64	23.66605
237.68	23.66187
237.72	23.66811
237.76	23.6647
237.8	23.66232
237.84	23.66679
237.88	23.6675
237.92	23.66563
237.96	23.66759
238.0	23.66087
238.04	23.66628
238.08	23.66562
238.12	23.66302
238.16	23.66284
238.2	23.66235
238.24	23.6601
238.28	23.66223
238.32	23.65781
238.36	23.66457
238.4	23.66264
238.44	23.66006
238.48	23.66461
238.52	23.66437
238.56	23.65903
238.6	23.66158
238.64	23.65617
238.68	23.66057
238.72	23.65471
238.76	23.6554
238.8	23.65698
238.84	23.65523
238.88	23.65904
238.92	23.66116
238.96	23.65933
239.0	23.66087
239.04	23.66376
239.08	23.6635
239.12	23.6619
239.16	23.6609
239.2	23.6637
239.24	23.66641
239.28	23.66386
239.32	23.6628
239.36	23.66464
239.4	23.66576
239.44	23.66917
239.48	23.66435
239.52	23.66145
239.56	23.66681
239.6	23.66476
239.64	23.67064
239.68	23.6646
239.72	23.66402
239.76	23.66852
239.8	23.66811
239.84	23.66469
239.88	23.66969
239.92	23.67125
239.96	23.67325
240.0	23.67323
240.04	23.67097
240.08	23.67055
240.12	23.66641
240.16	23.66562
240.2	23.6678
240.24	23.6615
240.28	23.6676
240.32	23.6673
240.36	23.66705
240.4	23.67159
240.44	23.6701
240.48	23.66931
240.52	23.66753
240.56	23.6727
240.6	23.6722
240.64	23.6684
240.68	23.67148
240.72	23.67322
240.76	23.67638
240.8	23.67572
240.84	23.67696
240.88	23.67055
240.92	23.67554
240.96	23.67331
241.0	23.67009
241.04	23.6727
241.08	23.67578
241.12	23.67159
241.16	23.67381
241.2	23.66911
241.24	23.67227
241.28	23.67654
241.32	23.67236
241.36	23.67534
241.4	23.67276
241.44	23.67168
241.48	23.67747
241.52	23.67421
241.56	23.67589
241.6	23.674
241.64	23.6743
241.68	23.6767
241.72	23.66124
241.76	23.67201
241.8	23.67476
241.84	23.67003
241.88	23.67493
241.92	23.67316
241.96	23.66695
242.0	23.67029
242.04	23.67279
242.08	23.67542
242.12	23.67072
242.16	23.66913
242.2	23.66931
242.24	23.66676
242.28	23.6696
242.32	23.67212
242.36	23.66989
242.4	23.668
242.44	23.67029
242.48	23.66904
242.52	23.67781
242.56	23.67567
242.6	23.67256
242.64	23.67505
242.68	23.67429
242.72	23.67473
242.76	23.67476
242.8	23.67133
242.84	23.6738
242.88	23.67055
242.92	23.66747
242.96	23.67213
243.0	23.66806
243.04	23.6693
243.08	23.67169
243.12	23.67201
243.16	23.6703
243.2	23.66351
243.24	23.6693
243.28	23.67346
243.32	23.66963
243.36	23.66919
243.4	23.67233
243.44	23.66791
243.48	23.66826
243.52	23.66779
243.56	23.66513
243.6	23.67123
243.64	23.66537
243.68	23.66548
243.72	23.66663
243.76	23.6693
243.8	23.67247
243.84	23.67331
243.88	23.66916
243.92	23.6729
243.96	23.67282
244.0	23.67276
244.04	23.67442
244.08	23.66905
244.12	23.66904
244.16	23.66829
244.2	23.66824
244.24	23.67038
244.28	23.66553
244.32	23.66621
244.36	23.66771
244.4	23.66989
244.44	23.67488
244.48	23.66658
244.52	23.66779
244.56	23.67056
244.6	23.66722
244.64	23.66724
244.68	23.66742
244.72	23.6662
244.76	23.66991
244.8	23.66409
244.84	23.66542
244.88	23.66672
244.92	23.66388
244.96	23.66763
245.0	23.66917
245.04	23.66721
245.08	23.66792
245.12	23.66499
245.16	23.6651
245.2	23.67023
245.24	23.66418
245.28	23.66391
245.32	23.66481
245.36	23.66754
245.4	23.66573
245.44	23.66566
245.48	23.66418
245.52	23.66481
245.56	23.66809
245.6	23.66818
245.64	23.66951
245.68	23.6638
245.72	23.66779
245.76	23.66821
245.8	23.66559
245.84	23.66895
245.88	23.66666
245.92	23.66736
245.96	23.67117
246.0	23.66681
246.04	23.66794
246.08	23.66852
246.12	23.66788
246.16	23.67276
246.2	23.66704
246.24	23.66631
246.28	23.66736
246.32	23.66766
246.36	23.66974
246.4	23.66794
246.44	23.66533
246.48	23.66824
246.52	23.6687
246.56	23.6718
246.6	23.66893
246.64	23.66554
246.68	23.66911
246.72	23.66528
246.76	23.66713
246.8	23.67036
246.84	23.66365
246.88	23.66696
246.92	23.66663
246.96	23.66711
247.0	23.67175
247.04	23.6669
247.08	23.66475
247.12	23.6685
247.16	23.66975
247.2	23.66953
247.24	23.66769
247.28	23.66776
247.32	23.66888
247.36	23.66481
247.4	23.67067
247.44	23.66925
247.48	23.66664
247.52	23.66949
247.56	23.67044
247.6	23.66844
247.64	23.66974
247.68	23.66902
247.72	23.66774
247.76	23.66798
247.8	23.66808
247.84	23.67177
247.88	23.67267
247.92	23.67088
247.96	23.67531
248.0	23.67526
248.04	23.67462
248.08	23.67796
248.12	23.67632
248.16	23.67953
248.2	23.67592
248.24	23.67487
248.28	23.67702
248.32	23.67444
248.36	23.67673
248.4	23.67905
248.44	23.67207
248.48	23.68008
248.52	23.67992
248.56	23.68246
248.6	23.68478
248.64	23.68129
248.68	23.67889
248.72	23.67923
248.76	23.67827
248.8	23.67693
248.84	23.67921
248.88	23.67867
248.92	23.67383
248.96	23.67389
249.0	23.674
249.04	23.67532
249.08	23.67349
249.12	23.67978
249.16	23.6797
249.2	23.67439
249.24	23.67596
249.28	23.67706
249.32	23.67206
249.36	23.67177
249.4	23.6667
249.44	23.67197
249.48	23.67496
249.52	23.67441
249.56	23.67488
249.6	23.67119
249.64	23.67415
249.68	23.67766
249.72	23.67538
249.76	23.67641
249.8	23.67267
249.84	23.66896
249.88	23.67754
249.92	23.67447
249.96	23.67348
250.0	23.67018
250.04	23.668
250.08	23.672
250.12	23.67079
250.16	23.67316
250.2	23.67055
250.24	23.66888
250.28	23.66882
250.32	23.66853
250.36	23.67151
250.4	23.67073
250.44	23.67148
250.48	23.66986
250.52	23.67334
250.56	23.6702
250.6	23.67435
250.64	23.67636
250.68	23.67326
250.72	23.66991
250.76	23.6743
250.8	23.67436
250.84	23.67851
250.88	23.67235
250.92	23.67015
250.96	23.67099
251.0	23.67317
251.04	23.6767
251.08	23.67383
251.12	23.67238
251.16	23.67447
251.2	23.67108
251.24	23.67598
251.28	23.67651
251.32	23.67422
251.36	23.67313
251.4	23.6713
251.44	23.675
251.48	23.67822
251.52	23.67651
251.56	23.67567
251.6	23.67685
251.64	23.67696
251.68	23.67999
251.72	23.67592
251.76	23.67517
251.8	23.67389
251.84	23.66913
251.88	23.67
251.92	23.67384
251.96	23.66653
252.0	23.67403
252.04	23.67348
252.08	23.6732
252.12	23.67651
252.16	23.67381
252.2	23.6725
252.24	23.67493
252.28	23.67357
252.32	23.6703
252.36	23.6718
252.4	23.67293
252.44	23.67259
252.48	23.67282
252.52	23.67128
252.56	23.67432
252.6	23.67145
252.64	23.67093
252.68	23.67709
252.72	23.67328
252.76	23.67473
252.8	23.67119
252.84	23.67056
252.88	23.67232
252.92	23.66888
252.96	23.67188
253.0	23.67088
253.04	23.66528
253.08	23.66624
253.12	23.66272
253.16	23.66731
253.2	23.66356
253.24	23.65987
253.28	23.6644
253.32	23.66342
253.36	23.66154
253.4	23.66447
253.44	23.66135
253.48	23.6653
253.52	23.66537
253.56	23.66299
253.6	23.66478
253.64	23.66426
253.68	23.66281
253.72	23.6604
253.76	23.66444
253.8	23.66138
253.84	23.66434
253.88	23.65996
253.92	23.66637
253.96	23.66756
254.0	23.66751
254.04	23.6701
254.08	23.66451
254.12	23.66954
254.16	23.67268
254.2	23.66406
254.24	23.67239
254.28	23.67302
254.32	23.67184
254.36	23.67331
254.4	23.66695
254.44	23.66843
254.48	23.6692
254.52	23.66455
254.56	23.66751
254.6	23.66156
254.64	23.65382
254.68	23.65736
254.72	23.65651
254.76	23.65797
254.8	23.65863
254.84	23.65752
254.88	23.65697
254.92	23.65791
254.96	23.65915
255.0	23.66347
255.04	23.66212
255.08	23.66338
255.12	23.66475
255.16	23.66533
255.2	23.66348
255.24	23.66188
255.28	23.66583
255.32	23.66714
255.36	23.66139
255.4	23.66316
255.44	23.66548
255.48	23.6657
255.52	23.6669
255.56	23.66579
255.6	23.66512
255.64	23.6675
255.68	23.66493
255.72	23.66805
255.76	23.66756
255.8	23.66428
255.84	23.66878
255.88	23.66571
255.92	23.66499
255.96	23.66832
256.0	23.666
256.04	23.67085
256.08	23.66656
256.12	23.66542
256.16	23.67072
256.2	23.6691
256.24	23.66246
256.28	23.66818
256.32	23.66672
256.36	23.66846
256.4	23.66751
256.44	23.66048
256.48	23.66606
256.52	23.66287
256.56	23.66631
256.6	23.66461
256.64	23.66415
256.68	23.66458
256.72	23.66284
256.76	23.66182
256.8	23.66417
256.84	23.66234
256.88	23.66153
256.92	23.66451
256.96	23.662
257.0	23.66002
257.04	23.6626
257.08	23.66321
257.12	23.6656
257.16	23.66298
257.2	23.66112
257.24	23.66342
257.28	23.65959
257.32	23.66408
257.36	23.66493
257.4	23.65999
257.44	23.66481
257.48	23.66537
257.52	23.66202
257.56	23.66566
257.6	23.66072
257.64	23.66287
257.68	23.66779
257.72	23.66759
257.76	23.67188
257.8	23.66949
257.84	23.67035
257.88	23.67392
257.92	23.67261
257.96	23.67151
258.0	23.67026
258.04	23.67198
258.08	23.67317
258.12	23.67389
258.16	23.67532
258.2	23.66957
258.24	23.66899
258.28	23.67363
258.32	23.67694
258.36	23.67561
258.4	23.67252
258.44	23.67361
258.48	23.67313
258.52	23.67302
258.56	23.67197
258.6	23.6743
258.64	23.674
258.68	23.6739
258.72	23.67267
258.76	23.67145
258.8	23.6729
258.84	23.67871
258.88	23.67458
258.92	23.67061
258.96	23.67599
259.0	23.67143
259.04	23.67796
259.08	23.66933
259.12	23.66689
259.16	23.67134
259.2	23.66898
259.24	23.6694
259.28	23.66962
259.32	23.66505
259.36	23.66298
259.4	23.66458
259.44	23.66707
259.48	23.66946
259.52	23.66943
259.56	23.66765
259.6	23.66753
259.64	23.66415
259.68	23.66472
259.72	23.66296
259.76	23.66678
259.8	23.6667
259.84	23.65965
259.88	23.66322
259.92	23.66125
259.96	23.66425
260.0	23.65904
260.04	23.66034
260.08	23.66492
260.12	23.66901
260.16	23.66209
260.2	23.66547
260.24	23.65753
260.28	23.66393
260.32	23.66946
260.36	23.66644
260.4	23.66962
260.44	23.66721
260.48	23.66301
260.52	23.66423
260.56	23.66692
260.6	23.66541
260.64	23.66678
260.68	23.66281
260.72	23.66362
260.76	23.66493
260.8	23.66499
260.84	23.66756
260.88	23.66505
260.92	23.66127
260.96	23.66347
261.0	23.66228
261.04	23.66083
261.08	23.66455
261.12	23.66179
261.16	23.66379
261.2	23.66321
261.24	23.65669
261.28	23.66077
261.32	23.65785
261.36	23.65858
261.4	23.65926
261.44	23.65617
261.48	23.6633
261.52	23.65988
261.56	23.65826
261.6	23.66136
261.64	23.65887
261.68	23.66133
261.72	23.65944
261.76	23.6553
261.8	23.66402
261.84	23.66086
261.88	23.6599
261.92	23.66002
261.96	23.65938
262.0	23.66168
262.04	23.66377
262.08	23.65926
262.12	23.66605
262.16	23.66629
262.2	23.65559
262.24	23.66035
262.28	23.65761
262.32	23.65781
262.36	23.66216
262.4	23.65771
262.44	23.6571
262.48	23.66414
262.52	23.66125
262.56	23.66165
262.6	23.65904
262.64	23.66042
262.68	23.66582
262.72	23.65694
262.76	23.66234
262.8	23.66371
262.84	23.65935
262.88	23.66884
262.92	23.66347
262.96	23.66457
263.0	23.66286
263.04	23.65865
263.08	23.66115
263.12	23.66451
263.16	23.66273
263.2	23.66769
263.24	23.66121
263.28	23.65591
263.32	23.65393
263.36	23.65402
263.4	23.65732
263.44	23.65791
263.48	23.66048
263.52	23.6615
263.56	23.65742
263.6	23.65533
263.64	23.66031
263.68	23.6608
263.72	23.65759
263.76	23.65608
263.8	23.64467
263.84	23.65898
263.88	23.65839
263.92	23.6496
263.96	23.66005
264.0	23.66013
264.04	23.66241
264.08	23.64998
264.12	23.65633
264.16	23.63411
264.2	23.65186
264.24	23.65962
264.28	23.63445
264.32	23.67065
264.36	23.64494
264.4	23.66353
264.44	23.65851
264.48	23.66121
264.52	23.6468
264.56	23.65509
264.6	23.66685
264.64	23.64001
264.68	23.66434
264.72	23.65247
264.76	23.65637
264.8	23.67369
264.84	23.65419
264.88	23.6581
264.92	23.64616
264.96	23.65807
265.0	23.65392
265.04	23.6515
265.08	23.65666
265.12	23.65315
265.16	23.65883
265.2	23.65363
265.24	23.65517
265.28	23.65038
265.32	23.65594
265.36	23.66055
265.4	23.65195
265.44	23.65742
265.48	23.65041
265.52	23.65158
265.56	23.65697
265.6	23.65399
265.64	23.65782
265.68	23.65829
265.72	23.65364
265.76	23.65685
265.8	23.65746
265.84	23.65755
265.88	23.65704
265.92	23.65997
265.96	23.65692
266.0	23.65926
266.04	23.65671
266.08	23.6575
266.12	23.65698
266.16	23.65761
266.2	23.65604
266.24	23.65526
266.28	23.65503
266.32	23.65262
266.36	23.65067
266.4	23.65642
266.44	23.6546
266.48	23.65552
266.52	23.65283
266.56	23.65646
266.6	23.65672
266.64	23.65785
266.68	23.65504
266.72	23.65419
266.76	23.65819
266.8	23.65527
266.84	23.64973
266.88	23.65132
266.92	23.65546
266.96	23.65614
267.0	23.65288
267.04	23.65523
267.08	23.65582
267.12	23.65561
267.16	23.66017
267.2	23.65747
267.24	23.65558
267.28	23.65506
267.32	23.65144
267.36	23.65604
267.4	23.6516
267.44	23.65784
267.48	23.6555
267.52	23.65195
267.56	23.65923
267.6	23.65559
267.64	23.65158
267.68	23.65424
267.72	23.65485
267.76	23.65643
267.8	23.65219
267.84	23.65211
267.88	23.65305
267.92	23.65143
267.96	23.65204
268.0	23.65417
268.04	23.65239
268.08	23.65585
268.12	23.65366
268.16	23.65044
268.2	23.65329
268.24	23.65108
268.28	23.64914
268.32	23.65018
268.36	23.65219
268.4	23.6546
268.44	23.6516
268.48	23.64847
268.52	23.65179
268.56	23.65294
268.6	23.64703
268.64	23.64824
268.68	23.64699
268.72	23.65253
268.76	23.65181
268.8	23.65213
268.84	23.65706
268.88	23.65254
268.92	23.6521
268.96	23.65417
269.0	23.6517
269.04	23.6552
269.08	23.65648
269.12	23.65465
269.16	23.65649
269.2	23.65501
269.24	23.65279
269.28	23.657
269.32	23.65074
269.36	23.65387
269.4	23.65169
269.44	23.64822
269.48	23.64832
269.52	23.64882
269.56	23.64961
269.6	23.64746
269.64	23.64558
269.68	23.6524
269.72	23.64929
269.76	23.64502
269.8	23.65234
269.84	23.65013
269.88	23.65157
269.92	23.65378
269.96	23.64771
270.0	23.64751
270.04	23.64833
270.08	23.6483
270.12	23.64304
270.16	23.64575
270.2	23.64734
270.24	23.64774
270.28	23.64873
270.32	23.64561
270.36	23.64421
270.4	23.64284
270.44	23.64565
270.48	23.64316
270.52	23.63904
270.56	23.64337
270.6	23.64021
270.64	23.64311
270.68	23.64186
270.72	23.6404
270.76	23.64342
270.8	23.64021
270.84	23.64433
270.88	23.64635
270.92	23.64209
270.96	23.64235
271.0	23.63847
271.04	23.64415
271.08	23.64616
271.12	23.64029
271.16	23.63823
271.2	23.64069
271.24	23.6335
271.28	23.63983
271.32	23.63741
271.36	23.64349
271.4	23.63649
271.44	23.63663
271.48	23.63783
271.52	23.64099
271.56	23.63837
271.6	23.63963
271.64	23.64157
271.68	23.6382
271.72	23.63449
271.76	23.63661
271.8	23.63785
271.84	23.64018
271.88	23.6403
271.92	23.63257
271.96	23.63295
272.0	23.63683
272.04	23.64334
272.08	23.63419
272.12	23.63535
272.16	23.63898
272.2	23.63557
272.24	23.6373
272.28	23.63937
272.32	23.63741
272.36	23.63757
272.4	23.6382
272.44	23.63162
272.48	23.63527
272.52	23.63309
272.56	23.6371
272.6	23.63736
272.64	23.63141
272.68	23.63358
272.72	23.63835
272.76	23.64012
272.8	23.63298
272.84	23.63397
272.88	23.63876
272.92	23.63745
272.96	23.6351
273.0	23.6355
273.04	23.63658
273.08	23.63152
273.12	23.63467
273.16	23.63742
273.2	23.6322
273.24	23.63365
273.28	23.63118
273.32	23.63734
273.36	23.63795
273.4	23.63451
273.44	23.63591
273.48	23.63161
273.52	23.63712
273.56	23.63177
273.6	23.6346
273.64	23.63806
273.68	23.63562
273.72	23.63547
273.76	23.63924
273.8	23.63782
273.84	23.64108
273.88	23.63376
273.92	23.63197
273.96	23.63243
274.0	23.6326
274.04	23.636
274.08	23.63687
274.12	23.63419
274.16	23.63548
274.2	23.63586
274.24	23.63036
274.28	23.63458
274.32	23.63301
274.36	23.63852
274.4	23.63431
274.44	23.63263
274.48	23.63304
274.52	23.63002
274.56	23.6355
274.6	23.63446
274.64	23.63084
274.68	23.62863
274.72	23.63763
274.76	23.62997
274.8	23.62943
274.84	23.63731
274.88	23.63623
274.92	23.63602
274.96	23.63879
275.0	23.63823
275.04	23.64166
275.08	23.63422
275.12	23.63567
275.16	23.63828
275.2	23.6382
275.24	23.6429
275.28	23.63834
275.32	23.63837
275.36	23.64076
275.4	23.63542
275.44	23.64091
275.48	23.64081
275.52	23.63429
275.56	23.6373
275.6	23.63748
275.64	23.63594
275.68	23.63454
275.72	23.6349
275.76	23.63966
275.8	23.63344
275.84	23.6315
275.88	23.63582
275.92	23.63496
275.96	23.63507
276.0	23.63446
276.04	23.63229
276.08	23.63097
276.12	23.63196
276.16	23.63382
276.2	23.63301
276.24	23.62929
276.28	23.63124
276.32	23.63393
276.36	23.63252
276.4	23.63358
276.44	23.62924
276.48	23.62791
276.52	23.63223
276.56	23.62669
276.6	23.62674
276.64	23.62941
276.68	23.62698
276.72	23.62859
276.76	23.63464
276.8	23.63049
276.84	23.63887
276.88	23.62502
276.92	23.62663
276.96	23.62985
277.0	23.62996
277.04	23.63092
277.08	23.63385
277.12	23.63094
277.16	23.63606
277.2	23.63144
277.24	23.63087
277.28	23.63104
277.32	23.6283
277.36	23.63
277.4	23.63016
277.44	23.63649
277.48	23.63611
277.52	23.63106
277.56	23.63403
277.6	23.63585
277.64	23.63399
277.68	23.63934
277.72	23.63655
277.76	23.63127
277.8	23.63107
277.84	23.63034
277.88	23.62993
277.92	23.62968
277.96	23.63321
278.0	23.634
278.04	23.63287
278.08	23.62874
278.12	23.63524
278.16	23.63519
278.2	23.63344
278.24	23.63358
278.28	23.62885
278.32	23.63414
278.36	23.63493
278.4	23.63025
278.44	23.63449
278.48	23.62999
278.52	23.62988
278.56	23.62999
278.6	23.625
278.64	23.62682
278.68	23.63069
278.72	23.63031
278.76	23.63693
278.8	23.63202
278.84	23.62718
278.88	23.63112
278.92	23.62822
278.96	23.6351
279.0	23.63028
279.04	23.63377
279.08	23.63361
279.12	23.62682
279.16	23.63454
279.2	23.63606
279.24	23.62917
279.28	23.63205
279.32	23.63016
279.36	23.63307
279.4	23.63496
279.44	23.63092
279.48	23.63263
279.52	23.63472
279.56	23.63632
279.6	23.63692
279.64	23.63959
279.68	23.63762
279.72	23.64384
279.76	23.64165
279.8	23.64467
279.84	23.64856
279.88	23.64743
279.92	23.64497
279.96	23.64502
280.0	23.64482
280.04	23.64841
280.08	23.64421
280.12	23.6472
280.16	23.64732
280.2	23.64511
280.24	23.64661
280.28	23.64113
280.32	23.63994
280.36	23.64595
280.4	23.64491
280.44	23.6398
280.48	23.64154
280.52	23.63841
280.56	23.6418
280.6	23.64142
280.64	23.63884
280.68	23.63977
280.72	23.63747
280.76	23.64229
280.8	23.64505
280.84	23.63773
280.88	23.64252
280.92	23.63452
280.96	23.64177
281.0	23.64299
281.04	23.63893
281.08	23.63731
281.12	23.63609
281.16	23.63869
281.2	23.6394
281.24	23.6386
281.28	23.63945
281.32	23.64293
281.36	23.64082
281.4	23.63853
281.44	23.64017
281.48	23.6407
281.52	23.64195
281.56	23.64259
281.6	23.64256
281.64	23.64732
281.68	23.64355
281.72	23.64224
281.76	23.6461
281.8	23.6405
281.84	23.64622
281.88	23.64244
281.92	23.64249
281.96	23.6456
282.0	23.64522
282.04	23.64238
282.08	23.64366
282.12	23.64287
282.16	23.64615
282.2	23.63866
282.24	23.64459
282.28	23.64841
282.32	23.64546
282.36	23.64644
282.4	23.65039
282.44	23.64058
282.48	23.64862
282.52	23.64342
282.56	23.63853
282.6	23.64554
282.64	23.64365
282.68	23.6456
282.72	23.64418
282.76	23.63739
282.8	23.64607
282.84	23.64449
282.88	23.64603
282.92	23.64133
282.96	23.64018
283.0	23.64128
283.04	23.64323
283.08	23.64363
283.12	23.63931
283.16	23.63911
283.2	23.64531
283.24	23.64647
283.28	23.63831
283.32	23.64069
283.36	23.64255
283.4	23.64008
283.44	23.64578
283.48	23.64226
283.52	23.64465
283.56	23.64726
283.6	23.64261
283.64	23.63454
283.68	23.64565
283.72	23.64461
283.76	23.64264
283.8	23.64345
283.84	23.63611
283.88	23.63925
283.92	23.63564
283.96	23.63734
284.0	23.63654
284.04	23.63107
284.08	23.63618
284.12	23.63158
284.16	23.63486
284.2	23.63876
284.24	23.63582
284.28	23.63727
284.32	23.63907
284.36	23.63251
284.4	23.63519
284.44	23.6279
284.48	23.63237
284.52	23.63974
284.56	23.63727
284.6	23.63646
284.64	23.63516
284.68	23.63232
284.72	23.63635
284.76	23.63779
284.8	23.63971
284.84	23.63953
284.88	23.63864
284.92	23.64082
284.96	23.63931
285.0	23.63342
285.04	23.63463
285.08	23.63699
285.12	23.63638
285.16	23.63922
285.2	23.63618
285.24	23.63451
285.28	23.63832
285.32	23.63356
285.36	23.63934
285.4	23.6347
285.44	23.63092
285.48	23.63832
285.52	23.63489
285.56	23.63914
285.6	23.63507
285.64	23.63327
285.68	23.63634
285.72	23.63737
285.76	23.6315
285.8	23.63451
285.84	23.63365
285.88	23.6385
285.92	23.63857
285.96	23.63277
286.0	23.63245
286.04	23.6348
286.08	23.63632
286.12	23.63821
286.16	23.63617
286.2	23.63387
286.24	23.63034
286.28	23.63486
286.32	23.63795
286.36	23.63747
286.4	23.63649
286.44	23.63643
286.48	23.63748
286.52	23.638
286.56	23.63968
286.6	23.63483
286.64	23.63588
286.68	23.63724
286.72	23.63676
286.76	23.63683
286.8	23.63025
286.84	23.63823
286.88	23.64037
286.92	23.64076
286.96	23.64488
287.0	23.6389
287.04	23.63741
287.08	23.63689
287.12	23.63289
287.16	23.63905
287.2	23.63828
287.24	23.63605
287.28	23.6384
287.32	23.63866
287.36	23.64305
287.4	23.64536
287.44	23.64153
287.48	23.64455
287.52	23.63957
287.56	23.63878
287.6	23.64378
287.64	23.64175
287.68	23.6431
287.72	23.63857
287.76	23.63495
287.8	23.63481
287.84	23.63908
287.88	23.63779
287.92	23.63605
287.96	23.63554
288.0	23.63441
288.04	23.64207
288.08	23.63837
288.12	23.63838
288.16	23.63699
288.2	23.63605
288.24	23.63649
288.28	23.63811
288.32	23.63933
288.36	23.63844
288.4	23.6357
288.44	23.63907
288.48	23.64024
288.52	23.6355
288.56	23.63579
288.6	23.63391
288.64	23.63617
288.68	23.63469
288.72	23.63251
288.76	23.63922
288.8	23.64203
288.84	23.63603
288.88	23.6371
288.92	23.63225
288.96	23.63876
289.0	23.64085
289.04	23.63663
289.08	23.6373
289.12	23.63219
289.16	23.63289
289.2	23.6371
289.24	23.63367
289.28	23.65302
289.32	23.66214
289.36	23.67728
289.4	23.68903
289.44	23.69258
289.48	23.69083
289.52	23.75339
289.56	23.72189
289.6	23.70787
289.64	23.7562
289.68	23.73203
289.72	23.72777
289.76	23.77165
289.8	23.75769
289.84	23.72342
289.88	23.77779
289.92	23.76715
289.96	23.75079
290.0	23.76624
290.04	23.75291
290.08	23.74174
290.12	23.76601
290.16	23.76418
290.2	23.76172
290.24	23.76289
290.28	23.76492
290.32	23.77177
290.36	23.76965
290.4	23.78653
290.44	23.7648
290.48	23.7664
290.52	23.79642
290.56	23.75661
290.6	23.74556
290.64	23.76877
290.68	23.77388
290.72	23.7467
290.76	23.78127
290.8	23.78159
290.84	23.73978
290.88	23.73288
290.92	23.68747
290.96	23.63422
291.0	23.66815
291.04	23.68138
291.08	23.66869
291.12	23.60611
291.16	23.63849
291.2	23.62869
291.24	23.63954
291.28	23.62106
291.32	23.616
291.36	23.62505
291.4	23.63846
291.44	23.64714
291.48	23.61226
291.52	23.62735
291.56	23.632
291.6	23.62677
291.64	23.62474
291.68	23.62097
291.72	23.62129
291.76	23.62868
291.8	23.64005
291.84	23.62271
291.88	23.62253
291.92	23.62691
291.96	23.62494
292.0	23.62909
292.04	23.63396
292.08	23.62856
292.12	23.62917
292.16	23.63194
292.2	23.62651
292.24	23.62294
292.28	23.63231
292.32	23.62408
292.36	23.61887
292.4	23.62775
292.44	23.62344
292.48	23.62636
292.52	23.6256
292.56	23.62141
292.6	23.62041
292.64	23.62065
292.68	23.62387
292.72	23.61975
292.76	23.61894
292.8	23.61752
292.84	23.6144
292.88	23.61717
292.92	23.62175
292.96	23.61897
293.0	23.62177
293.04	23.62334
293.08	23.61829
293.12	23.62712
293.16	23.62724
293.2	23.62366
293.24	23.6237
293.28	23.62166
293.32	23.61871
293.36	23.62164
293.4	23.62753
293.44	23.62852
293.48	23.62787
293.52	23.62807
293.56	23.62523
293.6	23.6306
293.64	23.63426
293.68	23.63222
293.72	23.62805
293.76	23.62808
293.8	23.63084
293.84	23.62662
293.88	23.63054
293.92	23.63213
293.96	23.6264
294.0	23.63252
294.04	23.63112
294.08	23.62312
294.12	23.61317
294.16	23.62396
294.2	23.62457
294.24	23.61905
294.28	23.62422
294.32	23.61797
294.36	23.61528
294.4	23.61911
294.44	23.61633
294.48	23.61533
294.52	23.62378
294.56	23.62262
294.6	23.62503
294.64	23.62231
294.68	23.61345
294.72	23.61386
294.76	23.61763
294.8	23.61691
294.84	23.61566
294.88	23.62189
294.92	23.62286
294.96	23.61598
295.0	23.6171
295.04	23.62494
295.08	23.62247
295.12	23.6234
295.16	23.62184
295.2	23.61955
295.24	23.62158
295.28	23.6189
295.32	23.62056
295.36	23.62679
295.4	23.62361
295.44	23.62045
295.48	23.62395
295.52	23.62074
295.56	23.6259
295.6	23.62914
295.64	23.62428
295.68	23.62453
295.72	23.62059
295.76	23.62735
295.8	23.62386
295.84	23.62187
295.88	23.62608
295.92	23.627
295.96	23.62535
296.0	23.62735
296.04	23.62123
296.08	23.61871
296.12	23.62344
296.16	23.62265
296.2	23.62299
296.24	23.62221
296.28	23.61421
296.32	23.61703
296.36	23.61319
296.4	23.61436
296.44	23.61465
296.48	23.61882
296.52	23.62254
296.56	23.61945
296.6	23.61789
296.64	23.62378
296.68	23.61858
296.72	23.61995
296.76	23.61926
296.8	23.61874
296.84	23.61411
296.88	23.61691
296.92	23.61717
296.96	23.61906
297.0	23.61586
297.04	23.61618
297.08	23.61618
297.12	23.6145
297.16	23.6228
297.2	23.61981
297.24	23.62106
297.28	23.61992
297.32	23.6207
297.36	23.61519
297.4	23.61317
297.44	23.61263
297.48	23.61537
297.52	23.61307
297.56	23.62061
297.6	23.6187
297.64	23.61766
297.68	23.61613
297.72	23.61896
297.76	23.61359
297.8	23.61592
297.84	23.61342
297.88	23.62096
297.92	23.62144
297.96	23.61873
298.0	23.62457
298.04	23.6183
298.08	23.61526
298.12	23.61552
298.16	23.6104
298.2	23.61156
298.24	23.6199
298.28	23.6131
298.32	23.6124
298.36	23.6156
298.4	23.61745
298.44	23.61171
298.48	23.60776
298.52	23.61009
298.56	23.60905
298.6	23.61276
298.64	23.61482
298.68	23.61134
298.72	23.60988
298.76	23.61308
298.8	23.60742
298.84	23.6105
298.88	23.61247
298.92	23.61034
298.96	23.61311
299.0	23.61209
299.04	23.6069
299.08	23.61037
299.12	23.60622
299.16	23.61429
299.2	23.61217
299.24	23.60828
299.28	23.60788
299.32	23.61319
299.36	23.61363
299.4	23.61537
299.44	23.60881
299.48	23.617
299.52	23.61272
299.56	23.61154
299.6	23.61348
299.64	23.61409
299.68	23.61336
299.72	23.61949
299.76	23.61481
299.8	23.61836
299.84	23.61685
299.88	23.62149
299.92	23.62256
299.96	23.62256
300.0	23.62633
300.04	23.62001
300.08	23.61795
300.12	23.61951
300.16	23.61769
300.2	23.62091
300.24	23.62363
300.28	23.62642
300.32	23.61552
300.36	23.60756
300.4	23.67856
300.44	23.65723
300.48	23.66443
300.52	23.68472
300.56	23.6861
300.6	23.66599
300.64	23.67844
300.68	23.69722
300.72	23.68327
300.76	23.69502
300.8	23.71007
300.84	23.6844
300.88	23.67984
300.92	23.71503
300.96	23.69855
301.0	23.68831
301.04	23.70184
301.08	23.70973
301.12	23.68813
301.16	23.70134
301.2	23.70535
301.24	23.70445
301.28	23.71216
301.32	23.70906
301.36	23.69861
301.4	23.70094
301.44	23.71681
301.48	23.69701
301.52	23.70512
301.56	23.71686
301.6	23.70618
301.64	23.71693
301.68	23.71655
301.72	23.75943
