Time (s) rumore_di_fondo_candela	Light Intensity (% of scale max) rumore_di_fondo_candela
0.0	2.60628
0.04	2.56293
0.08	2.52916
0.12	2.53696
0.16	2.55316
0.2	2.58592
0.24	2.61403
0.28	2.61981
0.32	2.5816
0.36	2.5563
0.4	2.54028
0.44	2.55705
0.48	2.5786
0.52	2.60985
0.56	2.62956
0.6	2.62025
0.64	2.57735
0.68	2.54842
0.72	2.5518
0.76	2.56712
0.8	2.59908
0.84	2.62384
0.88	2.62721
0.92	2.5838
0.96	2.5536
1.0	2.53647
1.04	2.54559
1.08	2.57394
1.12	2.59924
1.16	2.62256
1.2	2.60796
1.24	2.56192
1.28	2.53113
1.32	2.53171
1.36	2.55856
1.4	2.57724
1.44	2.61069
1.48	2.60809
1.52	2.56233
1.56	2.53432
1.6	2.52271
1.64	2.53464
1.68	2.5639
1.72	2.59563
1.76	2.6022
1.8	2.58412
1.84	2.5296
1.88	2.50102
1.92	2.5033
1.96	2.52335
2.0	2.54292
2.04	2.56232
2.08	2.55005
2.12	2.50507
2.16	2.48355
2.2	2.48352
2.24	2.50945
2.28	2.54123
2.32	2.56828
2.36	2.56406
2.4	2.54356
2.44	2.48701
2.48	2.47078
2.52	2.48709
2.56	2.50272
2.6	2.53239
2.64	2.54607
2.68	2.51912
2.72	2.47044
2.76	2.4481
2.8	2.45992
2.84	2.47832
2.88	2.5056
2.92	2.53053
2.96	2.515
3.0	2.47421
3.04	2.43602
3.08	2.44205
3.12	2.46571
3.16	2.49547
3.2	2.52744
3.24	2.52238
3.28	2.49071
3.32	2.44612
3.36	2.44424
3.4	2.46317
3.44	2.48303
3.48	2.51765
3.52	2.52505
3.56	2.50122
3.6	2.45572
3.64	2.44109
3.68	2.45518
3.72	2.47514
3.76	2.50754
3.8	2.53023
3.84	2.51353
3.88	2.46204
3.92	2.43805
3.96	2.4465
4.0	2.46645
4.04	2.49683
4.08	2.53006
4.12	2.51978
4.16	2.49178
4.2	2.44713
4.24	2.44467
4.28	2.46732
4.32	2.49631
4.36	2.52429
4.4	2.52899
4.44	2.5072
4.48	2.46136
4.52	2.44652
4.56	2.46465
4.6	2.48537
4.64	2.51843
4.68	2.53824
4.72	2.5186
4.76	2.48085
4.8	2.43408
4.84	2.44353
4.88	2.46724
4.92	2.49492
4.96	2.52153
5.0	2.50168
5.04	2.47498
5.08	2.42065
5.12	2.42381
5.16	2.439
5.2	2.46016
5.24	2.49782
5.28	2.50034
5.32	2.47794
5.36	2.41714
5.4	2.39606
5.44	2.4075
5.48	2.42664
5.52	2.45224
5.56	2.44456
5.6	2.41571
5.64	2.35997
5.68	2.3416
5.72	2.35664
5.76	2.38231
5.8	2.41751
5.84	2.4267
5.88	2.39426
5.92	2.35835
5.96	2.31273
6.0	2.31216
6.04	2.31374
6.08	2.32417
6.12	2.31987
6.16	2.28534
6.2	2.21616
6.24	2.14429
6.28	2.17316
6.32	2.21107
6.36	2.26863
6.4	2.33504
6.44	2.31845
6.48	2.27811
6.52	2.27928
6.56	2.34962
6.6	2.44791
6.64	2.55339
6.68	2.60385
6.72	2.59955
6.76	2.56746
6.8	2.52589
6.84	2.54626
6.88	2.56677
6.92	2.61031
6.96	2.66269
7.0	2.6819
7.04	2.64438
7.08	2.58463
7.12	2.56995
7.16	2.56831
7.2	2.58723
7.24	2.62584
7.28	2.65633
7.32	2.66142
7.36	2.65546
7.4	2.61069
7.44	2.61841
7.48	2.63109
7.52	2.65723
7.56	2.67221
7.6	2.66373
7.64	2.6346
7.68	2.61256
7.72	2.62866
7.76	2.67317
7.8	2.7054
7.84	2.73567
7.88	2.72031
7.92	2.6823
7.96	2.6275
8.0	2.55864
8.04	2.5609
8.08	2.57744
8.12	2.59451
8.16	2.61293
8.2	2.60664
8.24	2.59056
8.28	2.57083
8.32	2.58513
8.36	2.59834
8.4	2.61598
8.44	2.63417
8.48	2.63342
8.52	2.59807
8.56	2.556
8.6	2.52968
8.64	2.54849
8.68	2.58867
8.72	2.62038
8.76	2.6319
8.8	2.61491
8.84	2.58504
8.88	2.55847
8.92	2.57532
8.96	2.6002
9.0	2.61903
9.04	2.64142
9.08	2.62468
9.12	2.58649
9.16	2.5538
9.2	2.53619
9.24	2.54968
9.28	2.57988
9.32	2.6114
9.36	2.61597
9.4	2.59358
9.44	2.56842
9.48	2.53937
9.52	2.54549
9.56	2.57626
9.6	2.59959
9.64	2.62663
9.68	2.61327
9.72	2.5815
9.76	2.5511
9.8	2.53802
9.84	2.56726
9.88	2.58755
9.92	2.62271
9.96	2.6151
10.0	2.58858
10.04	2.56122
10.08	2.53056
10.12	2.54836
10.16	2.57495
10.2	2.6078
10.24	2.62523
10.28	2.60693
10.32	2.57758
10.36	2.54631
10.4	2.54218
10.44	2.56737
10.48	2.59859
10.52	2.62482
10.56	2.61705
10.6	2.58882
10.64	2.56078
10.68	2.53008
10.72	2.55458
10.76	2.57434
10.8	2.6132
10.84	2.61594
10.88	2.59433
10.92	2.55743
10.96	2.52396
11.0	2.54417
11.04	2.56407
11.08	2.60162
11.12	2.62288
11.16	2.60544
11.2	2.56773
11.24	2.53807
11.28	2.53737
11.32	2.55418
11.36	2.5845
11.4	2.61426
11.44	2.61026
11.48	2.58174
11.52	2.54956
11.56	2.51608
11.6	2.53995
11.64	2.56734
11.68	2.60078
11.72	2.60686
11.76	2.58817
11.8	2.56024
11.84	2.52559
11.88	2.52832
11.92	2.55893
11.96	2.58485
12.0	2.61502
12.04	2.60492
12.08	2.57549
12.12	2.55228
12.16	2.53221
12.2	2.56403
12.24	2.58414
12.28	2.62421
12.32	2.62016
12.36	2.59637
12.4	2.5661
12.44	2.53357
12.48	2.54666
12.52	2.57466
12.56	2.60524
12.6	2.62729
12.64	2.60863
12.68	2.5802
12.72	2.54478
12.76	2.5244
12.8	2.55394
12.84	2.58417
12.88	2.61322
12.92	2.60657
12.96	2.57791
13.0	2.54576
13.04	2.5201
13.08	2.54993
13.12	2.57309
13.16	2.60959
13.2	2.61409
13.24	2.592
13.28	2.5638
13.32	2.53381
13.36	2.52968
13.4	2.56468
13.44	2.59669
13.48	2.62639
13.52	2.6125
13.56	2.59207
13.6	2.56424
13.64	2.53882
13.68	2.57965
13.72	2.61613
13.76	2.65118
13.8	2.65797
13.84	2.63606
13.88	2.60812
13.92	2.57817
13.96	2.57703
14.0	2.61937
14.04	2.65479
14.08	2.67349
14.12	2.66052
14.16	2.63007
14.2	2.59906
14.24	2.58273
14.28	2.61522
14.32	2.63567
14.36	2.66461
14.4	2.66118
14.44	2.63412
14.48	2.60107
14.52	2.56662
14.56	2.57368
14.6	2.61108
14.64	2.63547
14.68	2.65907
14.72	2.64061
14.76	2.61183
14.8	2.58157
14.84	2.56104
14.88	2.58801
14.92	2.60872
14.96	2.64549
15.0	2.63943
15.04	2.61533
15.08	2.58353
15.12	2.55223
15.16	2.56201
15.2	2.60025
15.24	2.62718
15.28	2.64156
15.32	2.62131
15.36	2.58562
15.4	2.55367
15.44	2.54449
15.48	2.57883
15.52	2.61111
15.56	2.63423
15.6	2.62473
15.64	2.59329
15.68	2.56429
15.72	2.53769
15.76	2.55048
15.8	2.59178
15.84	2.62717
15.88	2.62903
15.92	2.60608
15.96	2.57393
16.0	2.54247
16.04	2.54202
16.08	2.57935
16.12	2.61453
16.16	2.63234
16.2	2.62012
16.24	2.58836
16.28	2.5547
16.32	2.53484
16.36	2.55264
16.4	2.59416
16.44	2.63048
16.48	2.62038
16.52	2.59839
16.56	2.57147
16.6	2.54163
16.64	2.54507
16.68	2.58345
16.72	2.62224
16.76	2.63866
16.8	2.62372
16.84	2.59489
16.88	2.56389
16.92	2.54926
16.96	2.57129
17.0	2.61014
17.04	2.64227
17.08	2.63483
17.12	2.6071
17.16	2.57346
17.2	2.54218
17.24	2.55206
17.28	2.58136
17.32	2.60104
17.36	2.60251
17.4	2.57162
17.44	2.52872
17.48	2.49527
17.52	2.48953
17.56	2.50388
17.6	2.55331
17.64	2.59009
17.68	2.58441
17.72	2.56029
17.76	2.53224
17.8	2.51253
17.84	2.53044
17.88	2.56621
17.92	2.59354
17.96	2.59192
18.0	2.57018
18.04	2.5426
18.08	2.505
18.12	2.51085
18.16	2.53033
18.2	2.57745
18.24	2.59296
18.28	2.57675
18.32	2.55109
18.36	2.52249
18.4	2.50722
18.44	2.52475
18.48	2.56464
18.52	2.59819
18.56	2.59225
18.6	2.5623
18.64	2.53543
18.68	2.5042
18.72	2.51413
18.76	2.5433
18.8	2.59367
18.84	2.60172
18.88	2.58331
18.92	2.5463
18.96	2.51535
19.0	2.51051
19.04	2.53195
19.08	2.57857
19.12	2.60617
19.16	2.58818
19.2	2.56445
19.24	2.52586
19.28	2.50479
19.32	2.52486
19.36	2.54652
19.4	2.59862
19.44	2.59657
19.48	2.5726
19.52	2.54593
19.56	2.51173
19.6	2.52008
19.64	2.53934
19.68	2.59174
19.72	2.60252
19.76	2.58592
19.8	2.55771
19.84	2.52869
19.88	2.51674
19.92	2.53433
19.96	2.5797
20.0	2.60762
20.04	2.59888
20.08	2.5668
20.12	2.5424
20.16	2.51657
20.2	2.52878
20.24	2.55104
20.28	2.60675
20.32	2.6192
20.36	2.60431
20.4	2.57732
20.44	2.54533
20.48	2.54677
20.52	2.57112
20.56	2.61812
20.6	2.6376
20.64	2.62331
20.68	2.59335
20.72	2.56335
20.76	2.53923
20.8	2.55531
20.84	2.58388
20.88	2.63181
20.92	2.62463
20.96	2.60135
21.0	2.57587
21.04	2.54459
21.08	2.54219
21.12	2.5616
21.16	2.60855
21.2	2.62898
21.24	2.61232
21.28	2.57811
21.32	2.54338
21.36	2.52681
21.4	2.55022
21.44	2.57127
21.48	2.62248
21.52	2.62419
21.56	2.60295
21.6	2.57307
21.64	2.54308
21.68	2.55508
21.72	2.58252
21.76	2.63596
21.8	2.65204
21.84	2.63661
21.88	2.60886
21.92	2.5791
21.96	2.56483
22.0	2.59071
22.04	2.61359
22.08	2.66656
22.12	2.66699
22.16	2.64359
22.2	2.61066
22.24	2.58415
22.28	2.59122
22.32	2.60851
22.36	2.65776
22.4	2.67218
22.44	2.659
22.48	2.6272
22.52	2.59903
22.56	2.58278
22.6	2.60562
22.64	2.62805
22.68	2.68193
22.72	2.67932
22.76	2.66173
22.8	2.63071
22.84	2.60214
22.88	2.6068
22.92	2.62335
22.96	2.64917
23.0	2.69478
23.04	2.6826
23.08	2.65877
23.12	2.63268
23.16	2.61215
23.2	2.62646
23.24	2.6506
23.28	2.69325
23.32	2.68025
23.36	2.64861
23.4	2.62579
23.44	2.58047
23.48	2.55051
23.52	2.55573
23.56	2.57529
23.6	2.60567
23.64	2.58725
23.68	2.55676
23.72	2.51913
23.76	2.49336
23.8	2.51045
23.84	2.53276
23.88	2.57968
23.92	2.56992
23.96	2.54735
24.0	2.51233
24.04	2.47691
24.08	2.48218
24.12	2.50786
24.16	2.55223
24.2	2.5692
24.24	2.54691
24.28	2.51292
24.32	2.48479
24.36	2.47362
24.4	2.49298
24.44	2.51262
24.48	2.56084
24.52	2.55238
24.56	2.52115
24.6	2.4846
24.64	2.46265
24.68	2.47255
24.72	2.48822
24.76	2.53493
24.8	2.53708
24.84	2.50882
24.88	2.48402
24.92	2.44778
24.96	2.45134
25.0	2.47597
25.04	2.50719
25.08	2.54366
25.12	2.52409
25.16	2.49588
25.2	2.45734
25.24	2.44664
25.28	2.46658
25.32	2.49483
25.36	2.55023
25.4	2.53793
25.44	2.50706
25.48	2.4761
25.52	2.45377
25.56	2.46996
25.6	2.49323
25.64	2.54335
25.68	2.54356
25.72	2.52498
25.76	2.49458
25.8	2.45845
25.84	2.46306
25.88	2.48744
25.92	2.51466
25.96	2.55037
26.0	2.53049
26.04	2.50487
26.08	2.47087
26.12	2.45871
26.16	2.48051
26.2	2.5034
26.24	2.55289
26.28	2.54495
26.32	2.51389
26.36	2.48772
26.4	2.46304
26.44	2.476
26.48	2.4933
26.52	2.54985
26.56	2.55362
26.6	2.52905
26.64	2.49271
26.68	2.4626
26.72	2.46095
26.76	2.48199
26.8	2.51384
26.84	2.55183
26.88	2.53127
26.92	2.50252
26.96	2.46136
27.0	2.43927
27.04	2.45569
27.08	2.4828
27.12	2.52705
27.16	2.5197
27.2	2.50165
27.24	2.47636
27.28	2.45097
27.32	2.46495
27.36	2.49466
27.4	2.54437
27.44	2.55475
27.48	2.5304
27.52	2.50642
27.56	2.47595
27.6	2.47438
27.64	2.49832
27.68	2.52069
27.72	2.56822
27.76	2.55748
27.8	2.52377
27.84	2.49355
27.88	2.47429
27.92	2.49034
27.96	2.51857
28.0	2.56609
28.04	2.56509
28.08	2.53908
28.12	2.51578
28.16	2.48277
28.2	2.4917
28.24	2.51562
28.28	2.53499
28.32	2.57254
28.36	2.55544
28.4	2.52722
28.44	2.49316
28.48	2.48376
28.52	2.50429
28.56	2.52451
28.6	2.57123
28.64	2.56134
28.68	2.53992
28.72	2.5092
28.76	2.47813
28.8	2.49081
28.84	2.51823
28.88	2.56726
28.92	2.57396
28.96	2.55225
29.0	2.51747
29.04	2.4883
29.08	2.48354
29.12	2.50563
29.16	2.53534
29.2	2.57773
29.24	2.56471
29.28	2.53099
29.32	2.49936
29.36	2.47803
29.4	2.49731
29.44	2.51956
29.48	2.56834
29.52	2.56689
29.56	2.54184
29.6	2.51953
29.64	2.48589
29.68	2.49434
29.72	2.51588
29.76	2.53748
29.8	2.57278
29.84	2.55754
29.88	2.53101
29.92	2.4976
29.96	2.48637
30.0	2.5076
30.04	2.52672
30.08	2.57372
30.12	2.56563
30.16	2.54179
30.2	2.51518
30.24	2.48442
30.28	2.49678
30.32	2.52138
30.36	2.5423
30.4	2.57237
30.44	2.55476
30.48	2.52785
30.52	2.49234
30.56	2.48772
30.6	2.51219
30.64	2.5325
30.68	2.57922
30.72	2.56697
30.76	2.54584
30.8	2.51755
30.84	2.49089
30.88	2.50771
30.92	2.53433
30.96	2.5979
31.0	2.6028
31.04	2.59283
31.08	2.58072
31.12	2.56616
31.16	2.56723
31.2	2.59436
31.24	2.61723
31.28	2.6644
31.32	2.65456
31.36	2.62819
31.4	2.60164
31.44	2.57954
31.48	2.5972
31.52	2.61885
31.56	2.67195
31.6	2.67827
31.64	2.65733
31.68	2.63028
31.72	2.59953
31.76	2.59111
31.8	2.6154
31.84	2.63622
31.88	2.68695
31.92	2.67236
31.96	2.64653
32.0	2.61853
32.04	2.58983
32.08	2.60077
32.12	2.62468
32.16	2.64813
32.2	2.68372
32.24	2.66504
32.28	2.63361
32.32	2.60197
32.36	2.58713
32.4	2.60674
32.44	2.6282
32.48	2.67865
32.52	2.66922
32.56	2.64465
32.6	2.61855
32.64	2.58513
32.68	2.58472
32.72	2.60909
32.76	2.63449
32.8	2.67174
32.84	2.65109
32.88	2.62047
32.92	2.59067
32.96	2.56982
33.0	2.58943
33.04	2.61113
33.08	2.65266
33.12	2.65569
33.16	2.63319
33.2	2.60332
33.24	2.56952
33.28	2.57309
33.32	2.59305
33.36	2.61597
33.4	2.65442
33.44	2.64262
33.48	2.60947
33.52	2.5744
33.56	2.55086
33.6	2.56699
33.64	2.58318
33.68	2.63237
33.72	2.63461
33.76	2.60875
33.8	2.58015
33.84	2.549
33.88	2.54529
33.92	2.55794
33.96	2.58904
34.0	2.62448
34.04	2.61311
34.08	2.58058
34.12	2.5488
34.16	2.52583
34.2	2.54393
34.24	2.56114
34.28	2.60907
34.32	2.61079
34.36	2.58528
34.4	2.55286
34.44	2.52553
34.48	2.52118
34.52	2.54712
34.56	2.5724
34.6	2.61113
34.64	2.592
34.68	2.56609
34.72	2.53592
34.76	2.51642
34.8	2.52824
34.84	2.55934
34.88	2.60909
34.92	2.60298
34.96	2.57993
35.0	2.55162
35.04	2.51555
35.08	2.52525
35.12	2.54497
35.16	2.5726
35.2	2.61072
35.24	2.59531
35.28	2.5625
35.32	2.53111
35.36	2.51764
35.4	2.54118
35.44	2.56474
35.48	2.61711
35.52	2.60706
35.56	2.58415
35.6	2.56068
35.64	2.5323
35.68	2.53789
35.72	2.56258
35.76	2.5863
35.8	2.62502
35.84	2.60861
35.88	2.58086
35.92	2.55367
35.96	2.54285
36.0	2.55878
36.04	2.58699
36.08	2.63263
36.12	2.62933
36.16	2.60379
36.2	2.57385
36.24	2.54393
36.28	2.55394
36.32	2.57591
36.36	2.6008
36.4	2.63583
36.44	2.62483
36.48	2.59248
36.52	2.55843
36.56	2.54483
36.6	2.56772
36.64	2.592
36.68	2.6398
36.72	2.63332
36.76	2.60712
36.8	2.58133
36.84	2.55063
36.88	2.55589
36.92	2.58452
36.96	2.60556
37.0	2.64276
37.04	2.62637
37.08	2.5941
37.12	2.55847
37.16	2.54503
37.2	2.56876
37.24	2.58716
37.28	2.63583
37.32	2.63187
37.36	2.60585
37.4	2.57735
37.44	2.54604
37.48	2.55266
37.52	2.56807
37.56	2.60162
37.6	2.63284
37.64	2.6165
37.68	2.58258
37.72	2.55464
37.76	2.53946
37.8	2.55562
37.84	2.58412
37.88	2.62857
37.92	2.61543
37.96	2.5941
38.0	2.56293
38.04	2.53253
38.08	2.54532
38.12	2.56462
38.16	2.59912
38.2	2.63113
38.24	2.61253
38.28	2.57733
38.32	2.54482
38.36	2.53529
38.4	2.56036
38.44	2.58272
38.48	2.62958
38.52	2.62375
38.56	2.59172
38.6	2.56073
38.64	2.53374
38.68	2.54451
38.72	2.57358
38.76	2.59448
38.8	2.62025
38.84	2.60004
38.88	2.56822
38.92	2.54021
38.96	2.53606
39.0	2.55148
39.04	2.58284
39.08	2.62564
39.12	2.61034
39.16	2.5806
39.2	2.55014
39.24	2.52223
39.28	2.52895
39.32	2.55714
39.36	2.57855
39.4	2.60268
39.44	2.58163
39.48	2.55515
39.52	2.52151
39.56	2.51805
39.6	2.54446
39.64	2.56479
39.68	2.6098
39.72	2.59337
39.76	2.56813
39.8	2.53497
39.84	2.51826
39.88	2.53458
39.92	2.55605
39.96	2.6053
40.0	2.6046
40.04	2.58017
40.08	2.54558
40.12	2.51085
40.16	2.51663
40.2	2.54277
40.24	2.56688
40.28	2.60504
40.32	2.58636
40.36	2.5481
40.4	2.51411
40.44	2.50238
40.48	2.52631
40.52	2.54527
40.56	2.59769
40.6	2.5851
40.64	2.56029
40.68	2.53555
40.72	2.50616
40.76	2.51431
40.8	2.53596
40.84	2.56078
40.88	2.597
40.92	2.57658
40.96	2.55069
41.0	2.52011
41.04	2.51164
41.08	2.52519
41.12	2.55518
41.16	2.60103
41.2	2.5929
41.24	2.56386
41.28	2.5331
41.32	2.51031
41.36	2.51782
41.4	2.54448
41.44	2.57457
41.48	2.603
41.52	2.58168
41.56	2.54617
41.6	2.51608
41.64	2.51233
41.68	2.53746
41.72	2.55743
41.76	2.60025
41.8	2.58972
41.84	2.56435
41.88	2.5302
41.92	2.51039
41.96	2.52975
42.0	2.54858
42.04	2.5816
42.08	2.60141
42.12	2.57744
42.16	2.545
42.2	2.51375
42.24	2.52069
42.28	2.54169
42.32	2.56509
42.36	2.60193
42.4	2.58618
42.44	2.5582
42.48	2.53191
42.52	2.51427
42.56	2.5265
42.6	2.5576
42.64	2.58107
42.68	2.59453
42.72	2.57355
42.76	2.54892
42.8	2.5183
42.84	2.5266
42.88	2.54236
42.92	2.57292
42.96	2.60251
43.0	2.58594
43.04	2.55586
43.08	2.52075
43.12	2.51727
43.16	2.52815
43.2	2.55827
43.24	2.60365
43.28	2.5925
43.32	2.56546
43.36	2.53159
43.4	2.50435
43.44	2.51904
43.48	2.54559
43.52	2.56697
43.56	2.59514
43.6	2.57654
43.64	2.54561
43.68	2.50934
43.72	2.51164
43.76	2.5343
